action_times,actions,block,path,prs,queries,rewards,rt,score,simulation_mode,state_rewards,time_elapsed,trial_index,trial_time,trial_id,trial_type,pid
"[8027, 14386, 16026]","[u'right', u'right', u'down']",pre_test,"[u'0', u'5', u'6', u'8']","{u'right': -22, u'up': 0, u'left': -30}","{u'mouseover': {u'state': {u'target': [], u'time': []}, u'edge': {u'target': [], u'time': []}}, u'click': {u'state': {u'target': [], u'time': []}, u'edge': {u'target': [], u'time': []}}, u'mouseout': {u'state': {u'target': [], u'time': []}, u'edge': {u'target': [], u'time': []}}}","[-4, 8, 24]","[8023, 5863, 1133]",28.0,"[None, None, None]","[u'', -2, 4, 48, 24, -4, 8, -48, 24, 4, -8, 24, 24]",75533,0.0,19514.0,-1.461775893828862e+18,mouselab-mdp,0
"[26821, 27540, 28333]","[u'left', u'left', u'up']",training,"[u'0', u'9', u'10', u'11']","{u'right': -36, u'up': -106, u'left': 0}","{u'mouseover': {u'state': {u'target': [], u'time': []}, u'edge': {u'target': [], u'time': []}}, u'click': {u'state': {u'target': [u'1', u'4', u'9', u'11'], u'time': [7298, 15008, 23246, 23865]}, u'edge': {u'target': [], u'time': []}}, u'mouseout': {u'state': {u'target': [], u'time': []}, u'edge': {u'target': [], u'time': []}}}","[4, -4, 48]","[26818, 222, 295]",44.0,"[None, None, None]","[u'', -2, -8, -48, -48, -4, -8, 24, 24, 4, -4, 48, -24]",116350,1.0,30725.0,-3.0273172606858936e+18,mouselab-mdp,0
"[43254, 43870, 44431]","[u'right', u'right', u'down']",training,"[u'0', u'5', u'6', u'8']","{u'right': 0, u'up': -72, u'left': -8}","{u'mouseover': {u'state': {u'target': [], u'time': []}, u'edge': {u'target': [], u'time': []}}, u'click': {u'state': {u'target': [u'7', u'9', u'12', u'11', u'8', u'6', u'10', u'5', u'2', u'3', u'4', u'1'], u'time': [6637, 14453, 14649, 17068, 19446, 26295, 26384, 29996, 36010, 37250, 39029, 40840]}, u'edge': {u'target': [], u'time': []}}, u'mouseout': {u'state': {u'target': [], u'time': []}, u'edge': {u'target': [], u'time': []}}}","[-4, 8, 48]","[43252, 125, 65]",40.0,"[None, None, None]","[u'', -4, 8, -24, -48, -4, 8, -48, 48, 4, -8, -24, 48]",164287,2.0,46887.0,-1.4148451789680307e+18,mouselab-mdp,0
"[37934, 38574, 39286]","[u'left', u'left', u'down']",training,"[u'0', u'9', u'10', u'12']","{u'right': -10, u'up': -28, u'left': 0}","{u'mouseover': {u'state': {u'target': [], u'time': []}, u'edge': {u'target': [], u'time': []}}, u'click': {u'state': {u'target': [u'5', u'7', u'8', u'6', u'12', u'10', u'11', u'2', u'4', u'3', u'1'], u'time': [10039, 12681, 18150, 18860, 24258, 24731, 26965, 28881, 30699, 33168, 34903]}, u'edge': {u'target': [], u'time': []}}, u'mouseout': {u'state': {u'target': [], u'time': []}, u'edge': {u'target': [], u'time': []}}}","[-4, 8, 48]","[37932, 144, 220]",41.0,"[None, None, None]","[u'', -4, 4, 24, 24, -2, -4, 48, -24, -4, 8, -48, 48]",206557,3.0,41109.0,-4.87466613580449e+18,mouselab-mdp,0
"[30043, 30603, 31210]","[u'left', u'left', u'down']",training,"[u'0', u'9', u'10', u'12']","{u'right': -30, u'up': -18, u'left': 0}","{u'mouseover': {u'state': {u'target': [], u'time': []}, u'edge': {u'target': [], u'time': []}}, u'click': {u'state': {u'target': [u'9', u'11', u'12', u'10', u'8', u'6', u'5', u'7', u'3', u'2', u'1', u'4'], u'time': [7932, 8465, 10365, 12248, 15324, 17733, 18735, 19530, 22532, 23670, 24712, 28422]}, u'edge': {u'target': [], u'time': []}}, u'mouseout': {u'state': {u'target': [], u'time': []}, u'edge': {u'target': [], u'time': []}}}","[4, 8, 48]","[30042, 54, 109]",48.0,"[None, None, None]","[u'', -2, -4, 48, -48, 2, 4, -48, 24, 4, 8, -48, 48]",240437,4.0,32834.0,-2.817098998670331e+18,mouselab-mdp,0
"[30288, 31065, 31992]","[u'left', u'left', u'up']",training,"[u'0', u'9', u'10', u'11']","{u'right': -16, u'up': -116, u'left': 0}","{u'mouseover': {u'state': {u'target': [], u'time': []}, u'edge': {u'target': [], u'time': []}}, u'click': {u'state': {u'target': [u'9', u'11', u'12', u'10', u'7', u'6', u'5', u'3', u'4', u'1', u'2'], u'time': [12819, 13339, 14812, 16091, 18206, 19769, 20988, 24072, 25609, 27115, 27821]}, u'edge': {u'target': [], u'time': []}}, u'mouseout': {u'state': {u'target': [], u'time': []}, u'edge': {u'target': [], u'time': []}}}","[4, 4, 48]","[30286, 274, 432]",45.0,"[None, None, None]","[u'', -4, -8, -48, -48, -4, -4, 48, 24, 4, 4, 48, -48]",276093,5.0,34608.0,-9.063084800167141e+18,mouselab-mdp,0
"[38362, 38929, 39961]","[u'up', u'up', u'left']",training,"[u'0', u'1', u'2', u'4']","{u'right': -46, u'up': 0, u'left': -44}","{u'mouseover': {u'state': {u'target': [], u'time': []}, u'edge': {u'target': [], u'time': []}}, u'click': {u'state': {u'target': [u'9', u'11', u'12', u'8', u'7', u'3', u'4', u'6', u'5', u'2', u'1'], u'time': [13399, 15873, 18957, 19916, 22483, 24965, 26744, 29924, 31180, 33377, 35130]}, u'edge': {u'target': [], u'time': []}}, u'mouseout': {u'state': {u'target': [], u'time': []}, u'edge': {u'target': [], u'time': []}}}","[2, -4, 24]","[38360, 70, 534]",11.0,"[None, None, None]","[u'', 2, -4, 24, 24, -4, 4, -24, -24, -2, 4, -24, -48]",322591,6.0,45354.0,7.862543089384343e+18,mouselab-mdp,0
"[28565, 29237, 29893]","[u'left', u'left', u'down']",training,"[u'0', u'9', u'10', u'12']","{u'right': -92, u'up': -66, u'left': 0}","{u'mouseover': {u'state': {u'target': [], u'time': []}, u'edge': {u'target': [], u'time': []}}, u'click': {u'state': {u'target': [u'12', u'10', u'9', u'6', u'8', u'3', u'4', u'11'], u'time': [4167, 5876, 9911, 12278, 15825, 18398, 21532, 24728]}, u'edge': {u'target': [], u'time': []}}, u'mouseout': {u'state': {u'target': [], u'time': []}, u'edge': {u'target': [], u'time': []}}}","[-4, -4, 48]","[28563, 175, 163]",32.0,"[None, None, None]","[u'', 2, -4, -24, -24, 4, -8, -48, -48, -4, -4, 48, 48]",355430,7.0,31797.0,-7.913607226466677e+18,mouselab-mdp,0
"[29491, 32139, 32980]","[u'right', u'right', u'down']",training,"[u'0', u'5', u'6', u'8']","{u'right': -14, u'up': -90, u'left': 0}","{u'mouseover': {u'state': {u'target': [], u'time': []}, u'edge': {u'target': [], u'time': []}}, u'click': {u'state': {u'target': [u'12', u'10', u'9', u'6', u'8', u'7', u'5', u'3', u'4', u'2', u'1'], u'time': [3850, 5852, 10042, 13970, 14353, 15673, 19998, 20761, 25186, 26322, 27252]}, u'edge': {u'target': [], u'time': []}}, u'mouseout': {u'state': {u'target': [], u'time': []}, u'edge': {u'target': [], u'time': []}}}","[-4, 4, 24]","[29488, 2152, 335]",13.0,"[None, None, None]","[u'', 4, -8, -48, -48, -4, 4, 24, 24, -2, -8, -24, 48]",390661,8.0,34115.0,-4.5694966460626975e+18,mouselab-mdp,0
"[6806, 14782, 15654]","[u'right', u'right', u'down']",training,"[u'0', u'5', u'6', u'8']","{u'right': -38, u'up': -4, u'left': 0}","{u'mouseover': {u'state': {u'target': [], u'time': []}, u'edge': {u'target': [], u'time': []}}, u'click': {u'state': {u'target': [u'11', u'10', u'9'], u'time': [2124, 3117, 3807]}, u'edge': {u'target': [], u'time': []}}, u'mouseout': {u'state': {u'target': [], u'time': []}, u'edge': {u'target': [], u'time': []}}}","[-2, -4, -48]","[6803, 7480, 377]",-57.0,"[None, None, None]","[u'', -4, 8, 48, -24, -2, -4, 24, -48, 4, 4, 48, -48]",409703,9.0,18000.0,7.26324481058999e+18,mouselab-mdp,0
"[6679, 7550, 8366]","[u'left', u'left', u'up']",training,"[u'0', u'9', u'10', u'11']","{u'right': -18, u'up': -102, u'left': 0}","{u'mouseover': {u'state': {u'target': [], u'time': []}, u'edge': {u'target': [], u'time': []}}, u'click': {u'state': {u'target': [u'10', u'11'], u'time': [3782, 4212]}, u'edge': {u'target': [], u'time': []}}, u'mouseout': {u'state': {u'target': [], u'time': []}, u'edge': {u'target': [], u'time': []}}}","[-2, 8, 48]","[6675, 374, 321]",52.0,"[None, None, None]","[u'', 4, -4, -48, -48, 4, 8, 24, -24, -2, 8, 48, -48]",423134,10.0,12294.0,-6.978553059181346e+18,mouselab-mdp,0
"[14143, 14952, 15640]","[u'up', u'up', u'left']",test,"[u'0', u'1', u'2', u'4']","{u'right': -78, u'up': 0, u'left': -38}","{u'mouseover': {u'state': {u'target': [], u'time': []}, u'edge': {u'target': [], u'time': []}}, u'click': {u'state': {u'target': [u'11', u'12', u'8', u'7', u'3', u'4', u'2', u'1'], u'time': [1713, 3778, 5092, 6119, 9171, 10180, 11830, 12702]}, u'edge': {u'target': [], u'time': []}}, u'mouseout': {u'state': {u'target': [], u'time': []}, u'edge': {u'target': [], u'time': []}}}","[4, 4, 48]","[14140, 311, 197]",48.0,"[None, None, None]","[u'', 4, 4, -48, 48, -2, 4, -48, -24, -2, -4, -48, 24]",457398,11.0,17960.0,-5.006809819184351e+18,mouselab-mdp,0
"[15412, 16091, 16819]","[u'up', u'up', u'left']",test,"[u'0', u'1', u'2', u'4']","{u'right': -98, u'up': 0, u'left': -38}","{u'mouseover': {u'state': {u'target': [], u'time': []}, u'edge': {u'target': [], u'time': []}}, u'click': {u'state': {u'target': [u'12', u'7', u'8', u'3', u'4', u'2', u'1'], u'time': [3384, 6075, 7254, 8991, 10001, 11537, 12268]}, u'edge': {u'target': [], u'time': []}}, u'mouseout': {u'state': {u'target': [], u'time': []}, u'edge': {u'target': [], u'time': []}}}","[4, 8, 48]","[15408, 181, 224]",53.0,"[None, None, None]","[u'', 4, 8, -24, 48, 2, 8, -48, -48, 2, -4, 24, -48]",477046,12.0,18563.0,-6.668518537832265e+18,mouselab-mdp,0
"[51567, 52271, 52887]","[u'up', u'up', u'right']",test,"[u'0', u'1', u'2', u'3']","{u'right': -2, u'up': 0, u'left': -14}","{u'mouseover': {u'state': {u'target': [], u'time': []}, u'edge': {u'target': [], u'time': []}}, u'click': {u'state': {u'target': [u'12', u'11', u'7', u'8', u'3', u'4', u'6', u'5', u'10', u'9', u'2', u'1'], u'time': [26401, 27914, 30559, 31615, 33249, 34290, 39619, 42007, 45050, 46162, 47652, 48990]}, u'edge': {u'target': [], u'time': []}}, u'mouseout': {u'state': {u'target': [], u'time': []}, u'edge': {u'target': [], u'time': []}}}","[-2, 4, 24]","[51565, 208, 121]",14.0,"[None, None, None]","[u'', -2, 4, 24, -24, -4, 4, -24, 24, -4, -8, -24, 24]",532255,13.0,54167.0,-3.142242075455045e+18,mouselab-mdp,0
"[10034, 10833, 11458]","[u'right', u'right', u'down']",test,"[u'0', u'5', u'6', u'8']","{u'right': 0, u'up': -34, u'left': -28}","{u'mouseover': {u'state': {u'target': [], u'time': []}, u'edge': {u'target': [], u'time': []}}, u'click': {u'state': {u'target': [u'12', u'8', u'6', u'5'], u'time': [3087, 5723, 7397, 8667]}, u'edge': {u'target': [], u'time': []}}, u'mouseout': {u'state': {u'target': [], u'time': []}, u'edge': {u'target': [], u'time': []}}}","[2, 4, 48]","[10033, 295, 134]",50.0,"[None, None, None]","[u'', 4, -8, 24, 24, 2, 4, 24, 48, -2, 4, 24, -48]",546318,14.0,12961.0,6.722698278557235e+18,mouselab-mdp,0
"[18592, 19175, 19703]","[u'right', u'right', u'down']",test,"[u'0', u'5', u'6', u'8']","{u'right': -8, u'up': -8, u'left': 0}","{u'mouseover': {u'state': {u'target': [], u'time': []}, u'edge': {u'target': [], u'time': []}}, u'click': {u'state': {u'target': [u'12', u'8', u'7', u'3', u'4', u'6', u'5'], u'time': [3599, 5858, 7292, 10224, 11970, 15817, 16936]}, u'edge': {u'target': [], u'time': []}}, u'mouseout': {u'state': {u'target': [], u'time': []}, u'edge': {u'target': [], u'time': []}}}","[2, 4, 24]","[18590, 85, 28]",23.0,"[None, None, None]","[u'', -2, 8, 24, -48, 2, 4, -24, 24, -2, -8, 48, -24]",568702,15.0,21343.0,6.282558609452272e+18,mouselab-mdp,0
"[18200, 18832, 19391]","[u'up', u'up', u'left']",test,"[u'0', u'1', u'2', u'4']","{u'right': 0, u'up': 0, u'left': -30}","{u'mouseover': {u'state': {u'target': [], u'time': []}, u'edge': {u'target': [], u'time': []}}, u'click': {u'state': {u'target': [u'12', u'11', u'7', u'8', u'5', u'6', u'3', u'4', u'2', u'1'], u'time': [1864, 2666, 4316, 5246, 6823, 7343, 9082, 10460, 11438, 12085]}, u'edge': {u'target': [], u'time': []}}, u'mouseout': {u'state': {u'target': [], u'time': []}, u'edge': {u'target': [], u'time': []}}}","[4, -8, 48]","[18198, 129, 70]",34.0,"[None, None, None]","[u'', 4, -8, 24, 48, 4, -8, -24, 48, -2, -8, 24, -24]",590862,16.0,21047.0,6.60860815512509e+18,mouselab-mdp,0
"[13448, 14064, 14743]","[u'right', u'right', u'up']",test,"[u'0', u'5', u'6', u'7']","{u'right': 0, u'up': -22, u'left': -34}","{u'mouseover': {u'state': {u'target': [], u'time': []}, u'edge': {u'target': [], u'time': []}}, u'click': {u'state': {u'target': [u'11', u'12', u'8', u'7', u'6', u'5'], u'time': [4686, 6384, 8090, 9068, 10637, 11648]}, u'edge': {u'target': [], u'time': []}}, u'mouseout': {u'state': {u'target': [], u'time': []}, u'edge': {u'target': [], u'time': []}}}","[-4, 8, 48]","[13444, 120, 180]",46.0,"[None, None, None]","[u'', -2, 8, -24, 24, -4, 8, 48, 24, -2, -4, 24, -48]",608455,17.0,16528.0,2.56147591952608e+18,mouselab-mdp,0
"[38435, 39109, 39748]","[u'left', u'left', u'up']",test,"[u'0', u'9', u'10', u'11']","{u'right': -32, u'up': -68, u'left': 0}","{u'mouseover': {u'state': {u'target': [], u'time': []}, u'edge': {u'target': [], u'time': []}}, u'click': {u'state': {u'target': [u'12', u'8', u'7', u'4', u'3', u'11', u'9', u'10'], u'time': [24972, 27119, 28113, 30218, 31132, 33094, 34863, 36178]}, u'edge': {u'target': [], u'time': []}}, u'mouseout': {u'state': {u'target': [], u'time': []}, u'edge': {u'target': [], u'time': []}}}","[4, -8, 48]","[38434, 173, 143]",36.0,"[None, None, None]","[u'', -4, 4, -24, -24, -4, -8, 24, -24, 4, -8, 48, -48]",651238,18.0,41684.0,4.609247180316577e+17,mouselab-mdp,0
"[6566, 7158, 7886]","[u'left', u'left', u'down']",test,"[u'0', u'9', u'10', u'12']","{u'right': 0, u'up': -32, u'left': -6}","{u'mouseover': {u'state': {u'target': [], u'time': []}, u'edge': {u'target': [], u'time': []}}, u'click': {u'state': {u'target': [u'12', u'9', u'10'], u'time': [2080, 3425, 4083]}, u'edge': {u'target': [], u'time': []}}, u'mouseout': {u'state': {u'target': [], u'time': []}, u'edge': {u'target': [], u'time': []}}}","[4, -4, 48]","[6565, 98, 224]",45.0,"[None, None, None]","[u'', 2, -4, 24, -24, -2, 8, 24, 48, 4, -4, 48, 48]",662510,19.0,10230.0,5.246743485396079e+18,mouselab-mdp,0
"[7724, 8355, 8987]","[u'left', u'left', u'down']",test,"[u'0', u'9', u'10', u'12']","{u'right': -90, u'up': -18, u'left': 0}","{u'mouseover': {u'state': {u'target': [], u'time': []}, u'edge': {u'target': [], u'time': []}}, u'click': {u'state': {u'target': [u'12', u'10', u'9'], u'time': [3662, 4815, 6073]}, u'edge': {u'target': [], u'time': []}}, u'mouseout': {u'state': {u'target': [], u'time': []}, u'edge': {u'target': [], u'time': []}}}","[4, 8, 48]","[7720, 139, 135]",57.0,"[None, None, None]","[u'', 2, -8, -24, 48, -2, -4, -24, -24, 4, 8, 24, 48]",674542,20.0,10931.0,6.51676073778936e+18,mouselab-mdp,0
"[12264, 12833, 13456]","[u'right', u'right', u'down']",test,"[u'0', u'5', u'6', u'8']","{u'right': 0, u'up': -14, u'left': -8}","{u'mouseover': {u'state': {u'target': [], u'time': []}, u'edge': {u'target': [], u'time': []}}, u'click': {u'state': {u'target': [u'9', u'12', u'10', u'8', u'6', u'5'], u'time': [2386, 3635, 4339, 6983, 8832, 9377]}, u'edge': {u'target': [], u'time': []}}, u'mouseout': {u'state': {u'target': [], u'time': []}, u'edge': {u'target': [], u'time': []}}}","[-2, 4, 48]","[12262, 76, 130]",44.0,"[None, None, None]","[u'', 4, 8, -24, 24, -2, 4, -24, 48, 2, -8, 24, 48]",690517,21.0,14928.0,8.866052500453722e+18,mouselab-mdp,0
"[17502, 18118, 18773]","[u'up', u'up', u'right']",test,"[u'0', u'1', u'2', u'3']","{u'right': -32, u'up': 0, u'left': -88}","{u'mouseover': {u'state': {u'target': [], u'time': []}, u'edge': {u'target': [], u'time': []}}, u'click': {u'state': {u'target': [u'12', u'11', u'8', u'7', u'3', u'2', u'1'], u'time': [6523, 7661, 10193, 11129, 13430, 14484, 15798]}, u'edge': {u'target': [], u'time': []}}, u'mouseout': {u'state': {u'target': [], u'time': []}, u'edge': {u'target': [], u'time': []}}}","[2, 8, 48]","[17499, 121, 157]",51.0,"[None, None, None]","[u'', 2, 8, 48, 24, -2, 4, 24, 24, -2, -4, -48, -24]",712039,22.0,20422.0,-8.923867603615937e+18,mouselab-mdp,0
"[17767, 18392, 19143]","[u'left', u'left', u'down']",test,"[u'0', u'9', u'10', u'12']","{u'right': -74, u'up': -10, u'left': 0}","{u'mouseover': {u'state': {u'target': [], u'time': []}, u'edge': {u'target': [], u'time': []}}, u'click': {u'state': {u'target': [u'12', u'10', u'9', u'11', u'8', u'7', u'3', u'4'], u'time': [2740, 4207, 5042, 6233, 8204, 10150, 11136, 13043]}, u'edge': {u'target': [], u'time': []}}, u'mouseout': {u'state': {u'target': [], u'time': []}, u'edge': {u'target': [], u'time': []}}}","[4, -8, 48]","[17765, 121, 255]",36.0,"[None, None, None]","[u'', 2, 8, 24, -24, 2, -8, -24, -24, 4, -8, 48, 48]",733711,23.0,20632.0,-3.200495881349436e+18,mouselab-mdp,0
"[24060, 24708, 26260]","[u'up', u'up', u'left']",test,"[u'0', u'1', u'2', u'4']","{u'right': -80, u'up': 0, u'left': -6}","{u'mouseover': {u'state': {u'target': [], u'time': []}, u'edge': {u'target': [], u'time': []}}, u'click': {u'state': {u'target': [u'12', u'8', u'7', u'3', u'4', u'11', u'10', u'9', u'6', u'5', u'2', u'1'], u'time': [3425, 5635, 7078, 9014, 10081, 11787, 15439, 16424, 17755, 18523, 20335, 21239]}, u'edge': {u'target': [], u'time': []}}, u'mouseout': {u'state': {u'target': [], u'time': []}, u'edge': {u'target': [], u'time': []}}}","[-2, 4, 24]","[24056, 149, 1048]",14.0,"[None, None, None]","[u'', -2, 4, -24, 24, -2, -4, -48, -48, 4, -8, 24, 24]",762734,24.0,27940.0,2.820201947454005e+17,mouselab-mdp,0
"[14022, 14647, 15215]","[u'up', u'up', u'right']",test,"[u'0', u'1', u'2', u'3']","{u'right': -24, u'up': 0, u'left': -36}","{u'mouseover': {u'state': {u'target': [], u'time': []}, u'edge': {u'target': [], u'time': []}}, u'click': {u'state': {u'target': [u'12', u'8', u'7', u'11', u'4', u'3', u'1', u'2'], u'time': [2855, 4264, 5620, 7614, 8518, 9840, 11209, 12219]}, u'edge': {u'target': [], u'time': []}}, u'mouseout': {u'state': {u'target': [], u'time': []}, u'edge': {u'target': [], u'time': []}}}","[-4, 4, 48]","[14020, 125, 75]",40.0,"[None, None, None]","[u'', -4, 4, 48, -48, -4, 4, -24, 24, -4, -8, 24, 24]",780511,25.0,16735.0,-5.995301136843023e+18,mouselab-mdp,0
"[20875, 21514, 22074]","[u'right', u'right', u'down']",test,"[u'0', u'5', u'6', u'8']","{u'right': 0, u'up': -48, u'left': -66}","{u'mouseover': {u'state': {u'target': [], u'time': []}, u'edge': {u'target': [], u'time': []}}, u'click': {u'state': {u'target': [u'12', u'8', u'6', u'5', u'7', u'3', u'4', u'11'], u'time': [7716, 9165, 10687, 11674, 12489, 13955, 16071, 16991]}, u'edge': {u'target': [], u'time': []}}, u'mouseout': {u'state': {u'target': [], u'time': []}, u'edge': {u'target': [], u'time': []}}}","[-4, -8, 48]","[20871, 137, 61]",28.0,"[None, None, None]","[u'', 4, 8, -24, -24, -4, -8, -48, 48, 2, -8, -24, -48]",805046,26.0,23434.0,2.63044322053822e+18,mouselab-mdp,0
"[10916, 11516, 14236]","[u'right', u'right', u'down']",test,"[u'0', u'5', u'6', u'8']","{u'right': 0, u'up': -42, u'left': -30}","{u'mouseover': {u'state': {u'target': [], u'time': []}, u'edge': {u'target': [], u'time': []}}, u'click': {u'state': {u'target': [u'12', u'8', u'6', u'5'], u'time': [3873, 6644, 8269, 9094]}, u'edge': {u'target': [], u'time': []}}, u'mouseout': {u'state': {u'target': [], u'time': []}, u'edge': {u'target': [], u'time': []}}}","[-2, 8, 48]","[10914, 102, 2222]",50.0,"[None, None, None]","[u'', -4, -8, 24, -24, -2, 8, 24, 48, 4, -4, 24, -48]",825998,27.0,19908.0,-1.1004490307225742e+18,mouselab-mdp,0
"[19359, 20054, 20686]","[u'left', u'left', u'down']",test,"[u'0', u'9', u'10', u'12']","{u'right': -60, u'up': -84, u'left': 0}","{u'mouseover': {u'state': {u'target': [], u'time': []}, u'edge': {u'target': [], u'time': []}}, u'click': {u'state': {u'target': [u'12', u'8', u'7', u'3', u'4', u'11', u'9', u'10'], u'time': [4754, 6603, 9087, 9975, 10841, 12025, 13684, 15870]}, u'edge': {u'target': [], u'time': []}}, u'mouseout': {u'state': {u'target': [], u'time': []}, u'edge': {u'target': [], u'time': []}}}","[2, 4, 24]","[19357, 204, 136]",22.0,"[None, None, None]","[u'', -2, -4, -48, -48, 2, -8, -24, -24, 2, 4, 24, 24]",849358,28.0,22262.0,-7.656966127788694e+18,mouselab-mdp,0
"[7599, 8119, 8751]","[u'right', u'right', u'down']",test,"[u'0', u'5', u'6', u'8']","{u'right': -2, u'up': 0, u'left': -32}","{u'mouseover': {u'state': {u'target': [], u'time': []}, u'edge': {u'target': [], u'time': []}}, u'click': {u'state': {u'target': [u'12', u'8', u'6', u'5'], u'time': [2011, 3645, 5143, 5817]}, u'edge': {u'target': [], u'time': []}}, u'mouseout': {u'state': {u'target': [], u'time': []}, u'edge': {u'target': [], u'time': []}}}","[-4, 8, 48]","[7597, 21, 133]",48.0,"[None, None, None]","[u'', 2, 4, -24, 48, -4, 8, -48, 48, 2, -4, 24, -24]",860894,29.0,10495.0,-8.327671364504025e+18,mouselab-mdp,0
"[8983, 9590, 10270]","[u'left', u'left', u'down']",test,"[u'0', u'9', u'10', u'12']","{u'right': -108, u'up': -26, u'left': 0}","{u'mouseover': {u'state': {u'target': [], u'time': []}, u'edge': {u'target': [], u'time': []}}, u'click': {u'state': {u'target': [u'12', u'9', u'10'], u'time': [4534, 6015, 7010]}, u'edge': {u'target': [], u'time': []}}, u'mouseout': {u'state': {u'target': [], u'time': []}, u'edge': {u'target': [], u'time': []}}}","[-4, 4, 48]","[8981, 104, 183]",45.0,"[None, None, None]","[u'', 2, -4, 24, -48, -4, -8, -48, -48, -4, 4, -48, 48]",873942,30.0,12007.0,2.1183359843005005e+18,mouselab-mdp,0
"[16429, 20861, 23986]","[u'up', u'up', u'right']",pre_test,"[u'0', u'1', u'2', u'3']","{u'right': -108, u'up': -26, u'left': 0}","{u'mouseover': {u'state': {u'target': [], u'time': []}, u'edge': {u'target': [], u'time': []}}, u'click': {u'state': {u'target': [u'5', u'1', u'2', u'4', u'3', u'9', u'10', u'11', u'12', u'7', u'6', u'8'], u'time': [3299, 4559, 5435, 5994, 6597, 7471, 7968, 8604, 10163, 11216, 12068, 12691]}, u'edge': {u'target': [], u'time': []}}, u'mouseout': {u'state': {u'target': [], u'time': []}, u'edge': {u'target': [], u'time': []}}}","[2, -4, 24]","[16411, 3935, 2615]",10.0,"[None, None, None]","[u'', 2, -4, 24, -48, -4, -8, -48, -48, -4, 4, -48, 48]",95376,0.0,27050.0,2.1183359843005005e+18,mouselab-mdp,1
"[12085, 13172, 14953]","[u'right', u'right', u'up']",training,"[u'0', u'5', u'6', u'7']","{u'right': 0, u'up': -68, u'left': -66}","{u'mouseover': {u'state': {u'target': [], u'time': []}, u'edge': {u'target': [], u'time': []}}, u'click': {u'state': {u'target': [u'9', u'10', u'12', u'11', u'4', u'2', u'3', u'1', u'5', u'6', u'7', u'8'], u'time': [2294, 3402, 4115, 4865, 5732, 6254, 6954, 7717, 8532, 9105, 9842, 10728]}, u'edge': {u'target': [], u'time': []}}, u'mouseout': {u'state': {u'target': [], u'time': []}, u'edge': {u'target': [], u'time': []}}}","[-2, 8, 48]","[12064, 575, 1272]",42.0,"[None, None, None]","[u'', 2, 8, -24, -48, -2, 8, 48, 24, 4, 8, -24, -48]",120418,1.0,17010.0,7.708577571422581e+18,mouselab-mdp,1
"[14183, 14838, 15343]","[u'left', u'left', u'up']",training,"[u'0', u'9', u'10', u'11']","{u'right': -32, u'up': -68, u'left': 0}","{u'mouseover': {u'state': {u'target': [], u'time': []}, u'edge': {u'target': [], u'time': []}}, u'click': {u'state': {u'target': [u'1', u'4', u'2', u'3', u'9', u'10', u'11', u'12', u'5', u'7', u'6', u'8'], u'time': [2398, 3058, 3874, 4406, 5450, 6063, 8837, 9778, 10720, 11356, 12182, 12719]}, u'edge': {u'target': [], u'time': []}}, u'mouseout': {u'state': {u'target': [], u'time': []}, u'edge': {u'target': [], u'time': []}}}","[4, -8, 48]","[14179, 155, 8]",32.0,"[None, None, None]","[u'', -4, 4, -24, -24, -4, -8, 24, -24, 4, -8, 48, -48]",138522,2.0,17024.0,4.609247180316577e+17,mouselab-mdp,1
"[6811, 7572, 8509]","[u'up', u'up', u'right']",training,"[u'0', u'1', u'2', u'3']","{u'right': -30, u'up': -18, u'left': 0}","{u'mouseover': {u'state': {u'target': [], u'time': []}, u'edge': {u'target': [], u'time': []}}, u'click': {u'state': {u'target': [u'2', u'3', u'4', u'11', u'7'], u'time': [1454, 2203, 3120, 3963, 4840]}, u'edge': {u'target': [], u'time': []}}, u'mouseout': {u'state': {u'target': [], u'time': []}, u'edge': {u'target': [], u'time': []}}}","[-2, -4, 48]","[6806, 258, 445]",37.0,"[None, None, None]","[u'', -2, -4, 48, -48, 2, 4, -48, 24, 4, 8, -48, 48]",151326,3.0,11680.0,-2.817098998670331e+18,mouselab-mdp,1
"[6257, 6924, 7691]","[u'left', u'left', u'up']",training,"[u'0', u'9', u'10', u'11']","{u'right': -36, u'up': -106, u'left': 0}","{u'mouseover': {u'state': {u'target': [], u'time': []}, u'edge': {u'target': [], u'time': []}}, u'click': {u'state': {u'target': [u'3', u'4', u'11'], u'time': [2428, 3268, 4362]}, u'edge': {u'target': [], u'time': []}}, u'mouseout': {u'state': {u'target': [], u'time': []}, u'edge': {u'target': [], u'time': []}}}","[4, -4, 48]","[6253, 147, 245]",45.0,"[None, None, None]","[u'', -2, -8, -48, -48, -4, -8, 24, 24, 4, -4, 48, -24]",162341,4.0,9945.0,-3.0273172606858936e+18,mouselab-mdp,1
"[2914, 3537, 4293]","[u'left', u'left', u'down']",training,"[u'0', u'9', u'10', u'12']","{u'right': 0, u'up': -14, u'left': -8}","{u'mouseover': {u'state': {u'target': [], u'time': []}, u'edge': {u'target': [], u'time': []}}, u'click': {u'state': {u'target': [u'12'], u'time': [1394]}, u'edge': {u'target': [], u'time': []}}, u'mouseout': {u'state': {u'target': [], u'time': []}, u'edge': {u'target': [], u'time': []}}}","[2, -8, 48]","[2899, 124, 247]",41.0,"[None, None, None]","[u'', 4, 8, -24, 24, -2, 4, -24, 48, 2, -8, 24, 48]",172762,5.0,9304.0,8.866052500453722e+18,mouselab-mdp,1
"[2079, 2715, 3389]","[u'right', u'right', u'up']",training,"[u'0', u'5', u'6', u'7']","{u'right': 0, u'up': -94, u'left': -78}","{u'mouseover': {u'state': {u'target': [], u'time': []}, u'edge': {u'target': [], u'time': []}}, u'click': {u'state': {u'target': [u'7'], u'time': [640]}, u'edge': {u'target': [], u'time': []}}, u'mouseout': {u'state': {u'target': [], u'time': []}, u'edge': {u'target': [], u'time': []}}}","[4, 8, 48]","[2075, 136, 176]",59.0,"[None, None, None]","[u'', -2, -8, -24, -24, 4, 8, 48, 24, -2, 8, -24, -48]",182994,6.0,9155.0,4.0797524101430456e+18,mouselab-mdp,1
"[6934, 7664, 8260]","[u'right', u'right', u'down']",training,"[u'0', u'5', u'6', u'8']","{u'right': 0, u'up': -94, u'left': -56}","{u'mouseover': {u'state': {u'target': [], u'time': []}, u'edge': {u'target': [], u'time': []}}, u'click': {u'state': {u'target': [u'11', u'4', u'3', u'8'], u'time': [2163, 3177, 4053, 5378]}, u'edge': {u'target': [], u'time': []}}, u'mouseout': {u'state': {u'target': [], u'time': []}, u'edge': {u'target': [], u'time': []}}}","[-2, -8, 48]","[6931, 217, 79]",34.0,"[None, None, None]","[u'', -4, -4, -48, -48, -2, -8, 24, 48, 2, 4, -24, -48]",193983,7.0,9901.0,-1.84824368346445e+18,mouselab-mdp,1
"[4335, 4986, 5527]","[u'left', u'left', u'up']",training,"[u'0', u'9', u'10', u'11']","{u'right': -36, u'up': -2, u'left': 0}","{u'mouseover': {u'state': {u'target': [], u'time': []}, u'edge': {u'target': [], u'time': []}}, u'click': {u'state': {u'target': [u'12', u'11'], u'time': [1961, 2896]}, u'edge': {u'target': [], u'time': []}}, u'mouseout': {u'state': {u'target': [], u'time': []}, u'edge': {u'target': [], u'time': []}}}","[-2, 4, 48]","[4326, 130, 22]",48.0,"[None, None, None]","[u'', 4, -4, 48, -48, -2, -8, 24, 24, -2, 4, 48, -48]",203433,8.0,8363.0,8.045829731203394e+18,mouselab-mdp,1
"[18838, 19420, 19985]","[u'left', u'left', u'up']",training,"[u'0', u'9', u'10', u'11']","{u'right': -60, u'up': -48, u'left': 0}","{u'mouseover': {u'state': {u'target': [], u'time': []}, u'edge': {u'target': [], u'time': []}}, u'click': {u'state': {u'target': [u'4', u'3', u'7', u'8', u'12', u'11', u'1', u'2', u'5', u'9', u'10', u'6'], u'time': [2161, 3305, 4139, 5342, 6436, 7404, 9477, 10418, 13094, 14429, 15624, 17700]}, u'edge': {u'target': [], u'time': []}}, u'mouseout': {u'state': {u'target': [], u'time': []}, u'edge': {u'target': [], u'time': []}}}","[-2, 8, 24]","[18832, 86, 51]",18.0,"[None, None, None]","[u'', 2, 4, -24, -48, -2, -4, -24, -24, -2, 8, 24, -24]",226816,9.0,22231.0,1.1823864361136648e+16,mouselab-mdp,1
"[2775, 3290, 4391]","[u'up', u'up', u'right']",training,"[u'0', u'1', u'2', u'3']","{u'right': -28, u'up': 0, u'left': -28}","{u'mouseover': {u'state': {u'target': [], u'time': []}, u'edge': {u'target': [], u'time': []}}, u'click': {u'state': {u'target': [u'3'], u'time': [1533]}, u'edge': {u'target': [], u'time': []}}, u'mouseout': {u'state': {u'target': [], u'time': []}, u'edge': {u'target': [], u'time': []}}}","[2, -4, 48]","[2769, 4, 573]",45.0,"[None, None, None]","[u'', 2, -4, 48, 24, -2, -4, 24, 24, 2, -8, -24, 24]",236324,10.0,8444.0,5.566012147915885e+17,mouselab-mdp,1
"[9490, 10124, 10879]","[u'left', u'left', u'up']",test,"[u'0', u'9', u'10', u'11']","{u'right': -38, u'up': -38, u'left': 0}","{u'mouseover': {u'state': {u'target': [], u'time': []}, u'edge': {u'target': [], u'time': []}}, u'click': {u'state': {u'target': [u'3', u'4', u'7', u'8', u'12', u'11'], u'time': [1982, 3291, 4412, 5810, 6843, 7786]}, u'edge': {u'target': [], u'time': []}}, u'mouseout': {u'state': {u'target': [], u'time': []}, u'edge': {u'target': [], u'time': []}}}","[4, -4, 24]","[9487, 144, 249]",18.0,"[None, None, None]","[u'', 2, 8, -48, -24, 2, 8, -24, -48, 4, -4, 24, -48]",269286,11.0,12429.0,4.953541845127005e+17,mouselab-mdp,1
"[5528, 6165, 6780]","[u'left', u'left', u'up']",test,"[u'0', u'9', u'10', u'11']","{u'right': -6, u'up': -24, u'left': 0}","{u'mouseover': {u'state': {u'target': [], u'time': []}, u'edge': {u'target': [], u'time': []}}, u'click': {u'state': {u'target': [u'3', u'4', u'11'], u'time': [1134, 2285, 4404]}, u'edge': {u'target': [], u'time': []}}, u'mouseout': {u'state': {u'target': [], u'time': []}, u'edge': {u'target': [], u'time': []}}}","[4, -4, 48]","[5525, 131, 112]",45.0,"[None, None, None]","[u'', 4, -4, -48, 24, -2, -4, 24, 48, 4, -4, 48, -48]",279748,12.0,9382.0,3.2058837162677184e+17,mouselab-mdp,1
"[5076, 5706, 6274]","[u'up', u'up', u'left']",test,"[u'0', u'1', u'2', u'4']","{u'right': -102, u'up': 0, u'left': -8}","{u'mouseover': {u'state': {u'target': [], u'time': []}, u'edge': {u'target': [], u'time': []}}, u'click': {u'state': {u'target': [u'4'], u'time': [3856]}, u'edge': {u'target': [], u'time': []}}, u'mouseout': {u'state': {u'target': [], u'time': []}, u'edge': {u'target': [], u'time': []}}}","[2, 4, 48]","[5061, 129, 48]",53.0,"[None, None, None]","[u'', 2, 4, -48, 48, -4, 4, -48, -48, 2, -4, 24, 48]",289313,13.0,8442.0,-5.849434166602758e+18,mouselab-mdp,1
"[5920, 6595, 7234]","[u'right', u'right', u'down']",test,"[u'0', u'5', u'6', u'8']","{u'right': 0, u'up': 0, u'left': -30}","{u'mouseover': {u'state': {u'target': [], u'time': []}, u'edge': {u'target': [], u'time': []}}, u'click': {u'state': {u'target': [u'3', u'7', u'8'], u'time': [1512, 3345, 4554]}, u'edge': {u'target': [], u'time': []}}, u'mouseout': {u'state': {u'target': [], u'time': []}, u'edge': {u'target': [], u'time': []}}}","[4, -8, 48]","[5916, 175, 147]",41.0,"[None, None, None]","[u'', 4, -8, 24, 48, 4, -8, -24, 48, -2, -8, 24, -24]",300617,14.0,10227.0,6.60860815512509e+18,mouselab-mdp,1
"[13467, 14245, 14933]","[u'up', u'up', u'right']",test,"[u'0', u'1', u'2', u'3']","{u'right': -22, u'up': 0, u'left': -30}","{u'mouseover': {u'state': {u'target': [], u'time': []}, u'edge': {u'target': [], u'time': []}}, u'click': {u'state': {u'target': [u'12', u'11', u'9', u'10', u'4', u'3'], u'time': [2055, 3198, 7053, 7843, 10666, 11686]}, u'edge': {u'target': [], u'time': []}}, u'mouseout': {u'state': {u'target': [], u'time': []}, u'edge': {u'target': [], u'time': []}}}","[-2, 4, 48]","[13464, 276, 181]",44.0,"[None, None, None]","[u'', -2, 4, 48, 24, -4, 8, -48, 24, 4, -8, 24, 24]",318461,15.0,16710.0,-1.461775893828862e+18,mouselab-mdp,1
"[10239, 10879, 11553]","[u'left', u'left', u'down']",test,"[u'0', u'9', u'10', u'12']","{u'right': -44, u'up': -6, u'left': 0}","{u'mouseover': {u'state': {u'target': [], u'time': []}, u'edge': {u'target': [], u'time': []}}, u'click': {u'state': {u'target': [u'7', u'8', u'3', u'4', u'11', u'12'], u'time': [1811, 3438, 4773, 5932, 6823, 7814]}, u'edge': {u'target': [], u'time': []}}, u'mouseout': {u'state': {u'target': [], u'time': []}, u'edge': {u'target': [], u'time': []}}}","[4, -4, 24]","[10216, 148, 156]",18.0,"[None, None, None]","[u'', -2, -4, 24, -48, -4, 8, -24, -24, 4, -4, -48, 24]",332591,16.0,13039.0,1.3993036559342144e+18,mouselab-mdp,1
"[6916, 7613, 8342]","[u'left', u'left', u'down']",test,"[u'0', u'9', u'10', u'12']","{u'right': -10, u'up': -28, u'left': 0}","{u'mouseover': {u'state': {u'target': [], u'time': []}, u'edge': {u'target': [], u'time': []}}, u'click': {u'state': {u'target': [u'3', u'4', u'11', u'12'], u'time': [1911, 2974, 4105, 5352]}, u'edge': {u'target': [], u'time': []}}, u'mouseout': {u'state': {u'target': [], u'time': []}, u'edge': {u'target': [], u'time': []}}}","[-4, 8, 48]","[6911, 204, 234]",48.0,"[None, None, None]","[u'', -4, 4, 24, 24, -2, -4, 48, -24, -4, 8, -48, 48]",344129,17.0,10143.0,-4.87466613580449e+18,mouselab-mdp,1
"[7288, 7956, 8554]","[u'left', u'left', u'down']",test,"[u'0', u'9', u'10', u'12']","{u'right': 0, u'up': -72, u'left': -8}","{u'mouseover': {u'state': {u'target': [], u'time': []}, u'edge': {u'target': [], u'time': []}}, u'click': {u'state': {u'target': [u'3', u'7', u'12'], u'time': [1774, 3122, 4854]}, u'edge': {u'target': [], u'time': []}}, u'mouseout': {u'state': {u'target': [], u'time': []}, u'edge': {u'target': [], u'time': []}}}","[4, -8, 48]","[7284, 151, 84]",41.0,"[None, None, None]","[u'', -4, 8, -24, -48, -4, 8, -48, 48, 4, -8, -24, 48]",355090,18.0,9903.0,-1.4148451789680307e+18,mouselab-mdp,1
"[8682, 9393, 9974]","[u'left', u'left', u'down']",test,"[u'0', u'9', u'10', u'12']","{u'right': -14, u'up': -24, u'left': 0}","{u'mouseover': {u'state': {u'target': [], u'time': []}, u'edge': {u'target': [], u'time': []}}, u'click': {u'state': {u'target': [u'11', u'4', u'3', u'7', u'8', u'12'], u'time': [1698, 3087, 4053, 5084, 6330, 7705]}, u'edge': {u'target': [], u'time': []}}, u'mouseout': {u'state': {u'target': [], u'time': []}, u'edge': {u'target': [], u'time': []}}}","[-4, 4, 48]","[8678, 204, 86]",42.0,"[None, None, None]","[u'', -4, 4, 24, 24, 2, 8, -24, 24, -4, 4, -24, 48]",367567,19.0,11319.0,5.347440239323845e+18,mouselab-mdp,1
"[10249, 10796, 11322]","[u'up', u'up', u'left']",test,"[u'0', u'1', u'2', u'4']","{u'right': -98, u'up': 0, u'left': -38}","{u'mouseover': {u'state': {u'target': [], u'time': []}, u'edge': {u'target': [], u'time': []}}, u'click': {u'state': {u'target': [u'3', u'7', u'11', u'12', u'8', u'4'], u'time': [1412, 2862, 6056, 7444, 8320, 9288]}, u'edge': {u'target': [], u'time': []}}, u'mouseout': {u'state': {u'target': [], u'time': []}, u'edge': {u'target': [], u'time': []}}}","[4, 8, 48]","[10246, 38, 32]",54.0,"[None, None, None]","[u'', 4, 8, -24, 48, 2, 8, -48, -48, 2, -4, 24, -48]",381083,20.0,12459.0,-6.668518537832265e+18,mouselab-mdp,1
"[4653, 5277, 5922]","[u'left', u'left', u'up']",test,"[u'0', u'9', u'10', u'11']","{u'right': -12, u'up': -64, u'left': 0}","{u'mouseover': {u'state': {u'target': [], u'time': []}, u'edge': {u'target': [], u'time': []}}, u'click': {u'state': {u'target': [u'3', u'4', u'11'], u'time': [1544, 2639, 3532]}, u'edge': {u'target': [], u'time': []}}, u'mouseout': {u'state': {u'target': [], u'time': []}, u'edge': {u'target': [], u'time': []}}}","[-2, -4, 48]","[4651, 108, 152]",39.0,"[None, None, None]","[u'', -2, 4, -48, -24, 2, 4, 24, 24, -2, -4, 48, -24]",391998,21.0,9804.0,7.457324294976434e+18,mouselab-mdp,1
"[7399, 7965, 8525]","[u'up', u'up', u'right']",test,"[u'0', u'1', u'2', u'3']","{u'right': -24, u'up': 0, u'left': -36}","{u'mouseover': {u'state': {u'target': [], u'time': []}, u'edge': {u'target': [], u'time': []}}, u'click': {u'state': {u'target': [u'7', u'12', u'4', u'3'], u'time': [1184, 3436, 5040, 6285]}, u'edge': {u'target': [], u'time': []}}, u'mouseout': {u'state': {u'target': [], u'time': []}, u'edge': {u'target': [], u'time': []}}}","[-4, 4, 48]","[7396, 51, 46]",44.0,"[None, None, None]","[u'', -4, 4, 48, -48, -4, 4, -24, 24, -4, -8, 24, 24]",402768,22.0,9723.0,-5.995301136843023e+18,mouselab-mdp,1
"[3757, 4547, 5076]","[u'right', u'right', u'down']",test,"[u'0', u'5', u'6', u'8']","{u'right': 0, u'up': -32, u'left': -6}","{u'mouseover': {u'state': {u'target': [], u'time': []}, u'edge': {u'target': [], u'time': []}}, u'click': {u'state': {u'target': [u'7', u'8'], u'time': [1537, 2560]}, u'edge': {u'target': [], u'time': []}}, u'mouseout': {u'state': {u'target': [], u'time': []}, u'edge': {u'target': [], u'time': []}}}","[-2, 8, 48]","[3753, 287, 14]",52.0,"[None, None, None]","[u'', 2, -4, 24, -24, -2, 8, 24, 48, 4, -4, 48, 48]",413682,23.0,9805.0,5.246743485396079e+18,mouselab-mdp,1
"[10841, 11629, 12370]","[u'left', u'left', u'down']",test,"[u'0', u'9', u'10', u'12']","{u'right': -60, u'up': -84, u'left': 0}","{u'mouseover': {u'state': {u'target': [], u'time': []}, u'edge': {u'target': [], u'time': []}}, u'click': {u'state': {u'target': [u'3', u'4', u'11', u'8', u'12', u'7'], u'time': [1497, 2477, 3621, 6638, 7718, 9108]}, u'edge': {u'target': [], u'time': []}}, u'mouseout': {u'state': {u'target': [], u'time': []}, u'edge': {u'target': [], u'time': []}}}","[2, 4, 24]","[10838, 287, 230]",24.0,"[None, None, None]","[u'', -2, -4, -48, -48, 2, -8, -24, -24, 2, 4, 24, 24]",428391,24.0,13667.0,-7.656966127788694e+18,mouselab-mdp,1
"[3352, 4138, 4724]","[u'up', u'up', u'right']",test,"[u'0', u'1', u'2', u'3']","{u'right': -82, u'up': 0, u'left': -12}","{u'mouseover': {u'state': {u'target': [], u'time': []}, u'edge': {u'target': [], u'time': []}}, u'click': {u'state': {u'target': [u'3'], u'time': [2133]}, u'edge': {u'target': [], u'time': []}}, u'mouseout': {u'state': {u'target': [], u'time': []}, u'edge': {u'target': [], u'time': []}}}","[-4, 8, 48]","[3335, 273, 76]",51.0,"[None, None, None]","[u'', -4, 8, 48, 24, 2, -8, -48, -24, -4, -4, 48, -24]",437942,25.0,8444.0,3.4197695056242627e+18,mouselab-mdp,1
"[6787, 7440, 8216]","[u'left', u'left', u'up']",test,"[u'0', u'9', u'10', u'11']","{u'right': -62, u'up': -20, u'left': 0}","{u'mouseover': {u'state': {u'target': [], u'time': []}, u'edge': {u'target': [], u'time': []}}, u'click': {u'state': {u'target': [u'7', u'3', u'4', u'12', u'11'], u'time': [1328, 2336, 3286, 4603, 5640]}, u'edge': {u'target': [], u'time': []}}, u'mouseout': {u'state': {u'target': [], u'time': []}, u'edge': {u'target': [], u'time': []}}}","[4, -8, 48]","[6784, 132, 275]",39.0,"[None, None, None]","[u'', 4, -4, -24, 24, 2, 4, -24, -48, 4, -8, 48, -48]",448832,26.0,9846.0,4.251687641687985e+18,mouselab-mdp,1
"[6757, 7381, 7985]","[u'right', u'right', u'up']",test,"[u'0', u'5', u'6', u'7']","{u'right': 0, u'up': -22, u'left': -34}","{u'mouseover': {u'state': {u'target': [], u'time': []}, u'edge': {u'target': [], u'time': []}}, u'click': {u'state': {u'target': [u'3', u'4', u'12', u'7'], u'time': [1661, 3061, 4423, 5683]}, u'edge': {u'target': [], u'time': []}}, u'mouseout': {u'state': {u'target': [], u'time': []}, u'edge': {u'target': [], u'time': []}}}","[-4, 8, 48]","[6753, 121, 92]",48.0,"[None, None, None]","[u'', -2, 8, -24, 24, -4, 8, 48, 24, -2, -4, 24, -48]",459614,27.0,9650.0,2.56147591952608e+18,mouselab-mdp,1
"[4734, 5385, 6010]","[u'left', u'left', u'down']",test,"[u'0', u'9', u'10', u'12']","{u'right': -8, u'up': -22, u'left': 0}","{u'mouseover': {u'state': {u'target': [], u'time': []}, u'edge': {u'target': [], u'time': []}}, u'click': {u'state': {u'target': [u'11', u'12'], u'time': [2466, 3546]}, u'edge': {u'target': [], u'time': []}}, u'mouseout': {u'state': {u'target': [], u'time': []}, u'edge': {u'target': [], u'time': []}}}","[-4, 8, 48]","[4720, 147, 120]",50.0,"[None, None, None]","[u'', 2, 4, 24, -24, 4, -8, 48, -24, -4, 8, -48, 48]",469106,28.0,8443.0,5.010381167344479e+18,mouselab-mdp,1
"[4679, 5354, 5995]","[u'up', u'up', u'left']",test,"[u'0', u'1', u'2', u'4']","{u'right': -78, u'up': 0, u'left': -38}","{u'mouseover': {u'state': {u'target': [], u'time': []}, u'edge': {u'target': [], u'time': []}}, u'click': {u'state': {u'target': [u'7', u'3', u'4'], u'time': [1194, 2402, 3345]}, u'edge': {u'target': [], u'time': []}}, u'mouseout': {u'state': {u'target': [], u'time': []}, u'edge': {u'target': [], u'time': []}}}","[4, 4, 48]","[4675, 155, 144]",53.0,"[None, None, None]","[u'', 4, 4, -48, 48, -2, 4, -48, -24, -2, -4, -48, 24]",478895,29.0,8728.0,-5.006809819184351e+18,mouselab-mdp,1
"[6194, 6889, 7513]","[u'right', u'right', u'down']",test,"[u'0', u'5', u'6', u'8']","{u'right': 0, u'up': -42, u'left': -30}","{u'mouseover': {u'state': {u'target': [], u'time': []}, u'edge': {u'target': [], u'time': []}}, u'click': {u'state': {u'target': [u'7', u'8'], u'time': [3112, 4793]}, u'edge': {u'target': [], u'time': []}}, u'mouseout': {u'state': {u'target': [], u'time': []}, u'edge': {u'target': [], u'time': []}}}","[-2, 8, 48]","[6191, 173, 113]",52.0,"[None, None, None]","[u'', -4, -8, 24, -24, -2, 8, 24, 48, 4, -4, 24, -48]",490731,30.0,10784.0,-1.1004490307225742e+18,mouselab-mdp,1
"[13468, 17244, 18574]","[u'left', u'left', u'down']",pre_test,"[u'0', u'9', u'10', u'12']","{u'right': -38, u'up': -38, u'left': 0}","{u'mouseover': {u'state': {u'target': [], u'time': []}, u'edge': {u'target': [], u'time': []}}, u'click': {u'state': {u'target': [u'1', u'9', u'5'], u'time': [8049, 9611, 10579]}, u'edge': {u'target': [], u'time': []}}, u'mouseout': {u'state': {u'target': [], u'time': []}, u'edge': {u'target': [], u'time': []}}}","[4, -4, -48]","[13449, 3230, 788]",-51.0,"[None, None, None]","[u'', 2, 8, -48, -24, 2, 8, -24, -48, 4, -4, 24, -48]",84471,0.0,21428.0,4.953541845127005e+17,mouselab-mdp,2
"[13936, 14584, 15148]","[u'left', u'left', u'down']",training,"[u'0', u'9', u'10', u'12']","{u'right': -108, u'up': -26, u'left': 0}","{u'mouseover': {u'state': {u'target': [], u'time': []}, u'edge': {u'target': [], u'time': []}}, u'click': {u'state': {u'target': [u'9', u'1', u'2', u'4', u'5', u'8', u'6', u'7', u'3', u'12', u'10', u'11'], u'time': [1407, 3166, 4027, 4752, 5495, 6167, 6706, 7101, 8356, 10411, 11339, 11676]}, u'edge': {u'target': [], u'time': []}}, u'mouseout': {u'state': {u'target': [], u'time': []}, u'edge': {u'target': [], u'time': []}}}","[-4, 4, 48]","[13919, 103, 1]",36.0,"[None, None, None]","[u'', 2, -4, 24, -48, -4, -8, -48, -48, -4, 4, -48, 48]",120400,1.0,17838.0,2.1183359843005005e+18,mouselab-mdp,2
"[10611, 11203, 11995]","[u'left', u'left', u'up']",training,"[u'0', u'9', u'10', u'11']","{u'right': -18, u'up': -102, u'left': 0}","{u'mouseover': {u'state': {u'target': [], u'time': []}, u'edge': {u'target': [], u'time': []}}, u'click': {u'state': {u'target': [u'12', u'11', u'9', u'4', u'3', u'7', u'8'], u'time': [2617, 3806, 5855, 7795, 8560, 9186, 9699]}, u'edge': {u'target': [], u'time': []}}, u'mouseout': {u'state': {u'target': [], u'time': []}, u'edge': {u'target': [], u'time': []}}}","[-2, 8, 48]","[10596, 63, 255]",47.0,"[None, None, None]","[u'', 4, -4, -48, -48, 4, 8, 24, -24, -2, 8, 48, -48]",135680,2.0,14101.0,-6.978553059181346e+18,mouselab-mdp,2
"[3226, 4328, 5290]","[u'left', u'left', u'down']",training,"[u'0', u'9', u'10', u'12']","{u'right': 0, u'up': -14, u'left': -8}","{u'mouseover': {u'state': {u'target': [], u'time': []}, u'edge': {u'target': [], u'time': []}}, u'click': {u'state': {u'target': [u'11', u'12'], u'time': [781, 1491]}, u'edge': {u'target': [], u'time': []}}, u'mouseout': {u'state': {u'target': [], u'time': []}, u'edge': {u'target': [], u'time': []}}}","[2, -8, 48]","[3211, 559, 423]",40.0,"[None, None, None]","[u'', 4, 8, -24, 24, -2, 4, -24, 48, 2, -8, 24, 48]",144675,3.0,7822.0,8.866052500453722e+18,mouselab-mdp,2
"[3036, 3759, 4825]","[u'left', u'left', u'up']",training,"[u'0', u'9', u'10', u'11']","{u'right': -74, u'up': -10, u'left': 0}","{u'mouseover': {u'state': {u'target': [], u'time': []}, u'edge': {u'target': [], u'time': []}}, u'click': {u'state': {u'target': [u'4', u'11'], u'time': [984, 1656]}, u'edge': {u'target': [], u'time': []}}, u'mouseout': {u'state': {u'target': [], u'time': []}, u'edge': {u'target': [], u'time': []}}}","[4, -8, 48]","[3020, 180, 532]",42.0,"[None, None, None]","[u'', 2, 8, 24, -24, 2, -8, -24, -24, 4, -8, 48, 48]",155765,4.0,9919.0,-3.200495881349436e+18,mouselab-mdp,2
"[3974, 4612, 5151]","[u'up', u'up', u'right']",training,"[u'0', u'1', u'2', u'3']","{u'right': -32, u'up': 0, u'left': -88}","{u'mouseover': {u'state': {u'target': [], u'time': []}, u'edge': {u'target': [], u'time': []}}, u'click': {u'state': {u'target': [u'8', u'7', u'3'], u'time': [1666, 2264, 3052]}, u'edge': {u'target': [], u'time': []}}, u'mouseout': {u'state': {u'target': [], u'time': []}, u'edge': {u'target': [], u'time': []}}}","[2, 8, 48]","[3958, 94, 2]",55.0,"[None, None, None]","[u'', 2, 8, 48, 24, -2, 4, 24, 24, -2, -4, -48, -24]",166455,5.0,9512.0,-8.923867603615937e+18,mouselab-mdp,2
"[10085, 10960, 11704]","[u'left', u'left', u'down']",training,"[u'0', u'9', u'10', u'12']","{u'right': -44, u'up': -6, u'left': 0}","{u'mouseover': {u'state': {u'target': [], u'time': []}, u'edge': {u'target': [], u'time': []}}, u'click': {u'state': {u'target': [u'4', u'11', u'12', u'3', u'7', u'8', u'1', u'2', u'6', u'10'], u'time': [1358, 2074, 2891, 3690, 4614, 5365, 6183, 6685, 7388, 8170]}, u'edge': {u'target': [], u'time': []}}, u'mouseout': {u'state': {u'target': [], u'time': []}, u'edge': {u'target': [], u'time': []}}}","[4, -4, 24]","[10070, 327, 208]",14.0,"[None, None, None]","[u'', -2, -4, 24, -48, -4, 8, -24, -24, 4, -4, -48, 24]",181265,6.0,13631.0,1.3993036559342144e+18,mouselab-mdp,2
"[2009, 2667, 3337]","[u'up', u'up', u'left']",training,"[u'0', u'1', u'2', u'4']","{u'right': -2, u'up': 0, u'left': -32}","{u'mouseover': {u'state': {u'target': [], u'time': []}, u'edge': {u'target': [], u'time': []}}, u'click': {u'state': {u'target': [u'4'], u'time': [1031]}, u'edge': {u'target': [], u'time': []}}, u'mouseout': {u'state': {u'target': [], u'time': []}, u'edge': {u'target': [], u'time': []}}}","[2, 4, 48]","[1993, 119, 135]",53.0,"[None, None, None]","[u'', 2, 4, -24, 48, -4, 8, -48, 48, 2, -4, 24, -24]",190805,7.0,8367.0,-8.327671364504025e+18,mouselab-mdp,2
"[8151, 8695, 9316]","[u'up', u'up', u'left']",training,"[u'0', u'1', u'2', u'4']","{u'right': -66, u'up': 0, u'left': -62}","{u'mouseover': {u'state': {u'target': [], u'time': []}, u'edge': {u'target': [], u'time': []}}, u'click': {u'state': {u'target': [u'3', u'4', u'11', u'12', u'7', u'8', u'2'], u'time': [1363, 2443, 3249, 3937, 4569, 5106, 6335]}, u'edge': {u'target': [], u'time': []}}, u'mouseout': {u'state': {u'target': [], u'time': []}, u'edge': {u'target': [], u'time': []}}}","[2, 4, 24]","[8136, 1, 106]",23.0,"[None, None, None]","[u'', 2, 4, -24, 24, 4, 8, -48, -48, -4, -4, -48, -24]",202515,8.0,10545.0,-7.784032825751816e+18,mouselab-mdp,2
"[3699, 4426, 5019]","[u'up', u'up', u'right']",training,"[u'0', u'1', u'2', u'3']","{u'right': -22, u'up': 0, u'left': -30}","{u'mouseover': {u'state': {u'target': [], u'time': []}, u'edge': {u'target': [], u'time': []}}, u'click': {u'state': {u'target': [u'4', u'11', u'12', u'3'], u'time': [858, 1435, 2042, 2802]}, u'edge': {u'target': [], u'time': []}}, u'mouseout': {u'state': {u'target': [], u'time': []}, u'edge': {u'target': [], u'time': []}}}","[-2, 4, 48]","[3685, 184, 61]",46.0,"[None, None, None]","[u'', -2, 4, 48, 24, -4, 8, -48, 24, 4, -8, 24, 24]",212369,9.0,8685.0,-1.461775893828862e+18,mouselab-mdp,2
"[7162, 7887, 8519]","[u'up', u'up', u'right']",training,"[u'0', u'1', u'2', u'3']","{u'right': -2, u'up': 0, u'left': -14}","{u'mouseover': {u'state': {u'target': [], u'time': []}, u'edge': {u'target': [], u'time': []}}, u'click': {u'state': {u'target': [u'3', u'4', u'11', u'12', u'7', u'8'], u'time': [1253, 2260, 2890, 3493, 4196, 4780]}, u'edge': {u'target': [], u'time': []}}, u'mouseout': {u'state': {u'target': [], u'time': []}, u'edge': {u'target': [], u'time': []}}}","[-2, 4, 24]","[7147, 170, 87]",20.0,"[None, None, None]","[u'', -2, 4, 24, -24, -4, 4, -24, 24, -4, -8, -24, 24]",223204,10.0,9664.0,-3.142242075455045e+18,mouselab-mdp,2
"[6391, 6965, 7528]","[u'up', u'up', u'left']",test,"[u'0', u'1', u'2', u'4']","{u'right': 0, u'up': -6, u'left': -64}","{u'mouseover': {u'state': {u'target': [], u'time': []}, u'edge': {u'target': [], u'time': []}}, u'click': {u'state': {u'target': [u'4', u'3', u'7', u'8', u'11', u'12'], u'time': [1401, 2417, 3249, 4110, 4897, 5485]}, u'edge': {u'target': [], u'time': []}}, u'mouseout': {u'state': {u'target': [], u'time': []}, u'edge': {u'target': [], u'time': []}}}","[-4, -4, 24]","[6376, 30, 23]",10.0,"[None, None, None]","[u'', -4, -4, -24, 24, 2, -4, 24, -48, -2, 8, -48, -48]",249079,11.0,9457.0,-1.3896256955715197e+18,mouselab-mdp,2
"[2176, 2803, 3514]","[u'left', u'left', u'up']",test,"[u'0', u'9', u'10', u'11']","{u'right': 0, u'up': -32, u'left': -6}","{u'mouseover': {u'state': {u'target': [], u'time': []}, u'edge': {u'target': [], u'time': []}}, u'click': {u'state': {u'target': [u'4', u'11'], u'time': [523, 1237]}, u'edge': {u'target': [], u'time': []}}, u'mouseout': {u'state': {u'target': [], u'time': []}, u'edge': {u'target': [], u'time': []}}}","[4, -4, 48]","[2161, 85, 163]",46.0,"[None, None, None]","[u'', 2, -4, 24, -24, -2, 8, 24, 48, 4, -4, 48, 48]",259647,12.0,9404.0,5.246743485396079e+18,mouselab-mdp,2
"[5245, 5869, 6589]","[u'left', u'left', u'down']",test,"[u'0', u'9', u'10', u'12']","{u'right': -102, u'up': 0, u'left': -8}","{u'mouseover': {u'state': {u'target': [], u'time': []}, u'edge': {u'target': [], u'time': []}}, u'click': {u'state': {u'target': [u'3', u'11', u'7', u'8', u'12'], u'time': [629, 1765, 2592, 3489, 4248]}, u'edge': {u'target': [], u'time': []}}, u'mouseout': {u'state': {u'target': [], u'time': []}, u'edge': {u'target': [], u'time': []}}}","[2, -4, 48]","[5230, 79, 166]",41.0,"[None, None, None]","[u'', 2, 4, -48, 48, -4, 4, -48, -48, 2, -4, 24, 48]",270197,13.0,9373.0,-5.849434166602758e+18,mouselab-mdp,2
"[4690, 5449, 6123]","[u'right', u'right', u'up']",test,"[u'0', u'5', u'6', u'7']","{u'right': 0, u'up': -22, u'left': -34}","{u'mouseover': {u'state': {u'target': [], u'time': []}, u'edge': {u'target': [], u'time': []}}, u'click': {u'state': {u'target': [u'4', u'11', u'12', u'3', u'7'], u'time': [1071, 1643, 2188, 2953, 3459]}, u'edge': {u'target': [], u'time': []}}, u'mouseout': {u'state': {u'target': [], u'time': []}, u'edge': {u'target': [], u'time': []}}}","[-4, 8, 48]","[4676, 218, 131]",47.0,"[None, None, None]","[u'', -2, 8, -24, 24, -4, 8, 48, 24, -2, -4, 24, -48]",283172,14.0,11802.0,2.56147591952608e+18,mouselab-mdp,2
"[2590, 3249, 3862]","[u'left', u'left', u'down']",test,"[u'0', u'9', u'10', u'12']","{u'right': -10, u'up': -28, u'left': 0}","{u'mouseover': {u'state': {u'target': [], u'time': []}, u'edge': {u'target': [], u'time': []}}, u'click': {u'state': {u'target': [u'4', u'11', u'12'], u'time': [322, 1025, 1508]}, u'edge': {u'target': [], u'time': []}}, u'mouseout': {u'state': {u'target': [], u'time': []}, u'edge': {u'target': [], u'time': []}}}","[-4, 8, 48]","[2575, 118, 78]",49.0,"[None, None, None]","[u'', -4, 4, 24, 24, -2, -4, 48, -24, -4, 8, -48, 48]",293699,15.0,9353.0,-4.87466613580449e+18,mouselab-mdp,2
"[2517, 3314, 3889]","[u'up', u'up', u'right']",test,"[u'0', u'1', u'2', u'3']","{u'right': -30, u'up': -18, u'left': 0}","{u'mouseover': {u'state': {u'target': [], u'time': []}, u'edge': {u'target': [], u'time': []}}, u'click': {u'state': {u'target': [u'3'], u'time': [1524]}, u'edge': {u'target': [], u'time': []}}, u'mouseout': {u'state': {u'target': [], u'time': []}, u'edge': {u'target': [], u'time': []}}}","[-2, -4, 48]","[2501, 256, 33]",41.0,"[None, None, None]","[u'', -2, -4, 48, -48, 2, 4, -48, 24, 4, 8, -48, 48]",304213,16.0,9351.0,-2.817098998670331e+18,mouselab-mdp,2
"[1535, 2297, 2901]","[u'up', u'up', u'left']",test,"[u'0', u'1', u'2', u'4']","{u'right': -78, u'up': 0, u'left': -38}","{u'mouseover': {u'state': {u'target': [], u'time': []}, u'edge': {u'target': [], u'time': []}}, u'click': {u'state': {u'target': [u'4'], u'time': [683]}, u'edge': {u'target': [], u'time': []}}, u'mouseout': {u'state': {u'target': [], u'time': []}, u'edge': {u'target': [], u'time': []}}}","[4, 4, 48]","[1519, 221, 61]",55.0,"[None, None, None]","[u'', 4, 4, -48, 48, -2, 4, -48, -24, -2, -4, -48, 24]",314842,17.0,9453.0,-5.006809819184351e+18,mouselab-mdp,2
"[2959, 3657, 4266]","[u'left', u'left', u'up']",test,"[u'0', u'9', u'10', u'11']","{u'right': -6, u'up': -24, u'left': 0}","{u'mouseover': {u'state': {u'target': [], u'time': []}, u'edge': {u'target': [], u'time': []}}, u'click': {u'state': {u'target': [u'3', u'4', u'11'], u'time': [478, 1439, 1943]}, u'edge': {u'target': [], u'time': []}}, u'mouseout': {u'state': {u'target': [], u'time': []}, u'edge': {u'target': [], u'time': []}}}","[4, -4, 48]","[2943, 158, 81]",45.0,"[None, None, None]","[u'', 4, -4, -48, 24, -2, -4, 24, 48, 4, -4, 48, -48]",325501,18.0,9476.0,3.2058837162677184e+17,mouselab-mdp,2
"[5268, 6105, 6702]","[u'left', u'left', u'up']",test,"[u'0', u'9', u'10', u'11']","{u'right': -8, u'up': -8, u'left': 0}","{u'mouseover': {u'state': {u'target': [], u'time': []}, u'edge': {u'target': [], u'time': []}}, u'click': {u'state': {u'target': [u'3', u'7', u'8', u'4', u'11'], u'time': [1133, 1782, 2471, 3299, 4155]}, u'edge': {u'target': [], u'time': []}}, u'mouseout': {u'state': {u'target': [], u'time': []}, u'edge': {u'target': [], u'time': []}}}","[-2, -8, 48]","[5254, 305, 55]",33.0,"[None, None, None]","[u'', -2, 8, 24, -48, 2, 4, -24, 24, -2, -8, 48, -24]",335162,19.0,8490.0,6.282558609452272e+18,mouselab-mdp,2
"[1451, 2185, 2815]","[u'up', u'up', u'right']",test,"[u'0', u'1', u'2', u'3']","{u'right': 0, u'up': -12, u'left': -6}","{u'mouseover': {u'state': {u'target': [], u'time': []}, u'edge': {u'target': [], u'time': []}}, u'click': {u'state': {u'target': [u'3'], u'time': [566]}, u'edge': {u'target': [], u'time': []}}, u'mouseout': {u'state': {u'target': [], u'time': []}, u'edge': {u'target': [], u'time': []}}}","[-2, -4, 48]","[1437, 191, 89]",41.0,"[None, None, None]","[u'', -2, -4, 48, 24, 2, 4, -48, 48, -4, 4, 48, 24]",344928,20.0,8584.0,7.946552191512982e+18,mouselab-mdp,2
"[3203, 3838, 4403]","[u'left', u'left', u'up']",test,"[u'0', u'9', u'10', u'11']","{u'right': -32, u'up': -68, u'left': 0}","{u'mouseover': {u'state': {u'target': [], u'time': []}, u'edge': {u'target': [], u'time': []}}, u'click': {u'state': {u'target': [u'3', u'4', u'11'], u'time': [1069, 1725, 2141]}, u'edge': {u'target': [], u'time': []}}, u'mouseout': {u'state': {u'target': [], u'time': []}, u'edge': {u'target': [], u'time': []}}}","[4, -8, 48]","[3188, 91, 38]",41.0,"[None, None, None]","[u'', -4, 4, -24, -24, -4, -8, 24, -24, 4, -8, 48, -48]",355245,21.0,9147.0,4.609247180316577e+17,mouselab-mdp,2
"[3639, 4209, 4800]","[u'left', u'left', u'up']",test,"[u'0', u'9', u'10', u'11']","{u'right': -16, u'up': -116, u'left': 0}","{u'mouseover': {u'state': {u'target': [], u'time': []}, u'edge': {u'target': [], u'time': []}}, u'click': {u'state': {u'target': [u'3', u'8', u'11'], u'time': [982, 1729, 2542]}, u'edge': {u'target': [], u'time': []}}, u'mouseout': {u'state': {u'target': [], u'time': []}, u'edge': {u'target': [], u'time': []}}}","[4, 4, 48]","[3625, 15, 39]",53.0,"[None, None, None]","[u'', -4, -8, -48, -48, -4, -4, 48, 24, 4, 4, 48, -48]",366182,22.0,9772.0,-9.063084800167141e+18,mouselab-mdp,2
"[1787, 2411, 2999]","[u'up', u'up', u'right']",test,"[u'0', u'1', u'2', u'3']","{u'right': -36, u'up': -2, u'left': 0}","{u'mouseover': {u'state': {u'target': [], u'time': []}, u'edge': {u'target': [], u'time': []}}, u'click': {u'state': {u'target': [u'3'], u'time': [882]}, u'edge': {u'target': [], u'time': []}}, u'mouseout': {u'state': {u'target': [], u'time': []}, u'edge': {u'target': [], u'time': []}}}","[4, -4, 48]","[1773, 93, 47]",47.0,"[None, None, None]","[u'', 4, -4, 48, -48, -2, -8, 24, 24, -2, 4, 48, -48]",375766,23.0,8419.0,8.045829731203394e+18,mouselab-mdp,2
"[1995, 2558, 3153]","[u'left', u'left', u'up']",test,"[u'0', u'9', u'10', u'11']","{u'right': -12, u'up': -64, u'left': 0}","{u'mouseover': {u'state': {u'target': [], u'time': []}, u'edge': {u'target': [], u'time': []}}, u'click': {u'state': {u'target': [u'4', u'11'], u'time': [555, 1058]}, u'edge': {u'target': [], u'time': []}}, u'mouseout': {u'state': {u'target': [], u'time': []}, u'edge': {u'target': [], u'time': []}}}","[-2, -4, 48]","[1978, 18, 65]",40.0,"[None, None, None]","[u'', -2, 4, -48, -24, 2, 4, 24, 24, -2, -4, 48, -24]",385283,24.0,8285.0,7.457324294976434e+18,mouselab-mdp,2
"[6880, 7517, 8087]","[u'left', u'left', u'up']",test,"[u'0', u'9', u'10', u'11']","{u'right': -60, u'up': -48, u'left': 0}","{u'mouseover': {u'state': {u'target': [], u'time': []}, u'edge': {u'target': [], u'time': []}}, u'click': {u'state': {u'target': [u'3', u'11', u'12', u'7', u'8', u'4'], u'time': [1254, 2409, 3092, 3687, 4411, 5020]}, u'edge': {u'target': [], u'time': []}}, u'mouseout': {u'state': {u'target': [], u'time': []}, u'edge': {u'target': [], u'time': []}}}","[-2, 8, 24]","[6864, 93, 27]",24.0,"[None, None, None]","[u'', 2, 4, -24, -48, -2, -4, -24, -24, -2, 8, 24, -24]",395991,25.0,9529.0,1.1823864361136648e+16,mouselab-mdp,2
"[3971, 4525, 5101]","[u'left', u'left', u'down']",test,"[u'0', u'9', u'10', u'12']","{u'right': -14, u'up': -24, u'left': 0}","{u'mouseover': {u'state': {u'target': [], u'time': []}, u'edge': {u'target': [], u'time': []}}, u'click': {u'state': {u'target': [u'3', u'4', u'11', u'12'], u'time': [759, 1451, 2318, 2950]}, u'edge': {u'target': [], u'time': []}}, u'mouseout': {u'state': {u'target': [], u'time': []}, u'edge': {u'target': [], u'time': []}}}","[-4, 4, 48]","[3957, 9, 35]",44.0,"[None, None, None]","[u'', -4, 4, 24, 24, 2, 8, -24, 24, -4, 4, -24, 48]",406536,26.0,9361.0,5.347440239323845e+18,mouselab-mdp,2
"[5286, 5858, 6910]","[u'right', u'right', u'down']",test,"[u'0', u'5', u'6', u'8']","{u'right': 0, u'up': -34, u'left': -28}","{u'mouseover': {u'state': {u'target': [], u'time': []}, u'edge': {u'target': [], u'time': []}}, u'click': {u'state': {u'target': [u'3', u'4', u'11', u'12', u'7', u'8'], u'time': [714, 1330, 1767, 2393, 3596, 4268]}, u'edge': {u'target': [], u'time': []}}, u'mouseout': {u'state': {u'target': [], u'time': []}, u'edge': {u'target': [], u'time': []}}}","[2, 4, 48]","[5271, 26, 495]",48.0,"[None, None, None]","[u'', 4, -8, 24, 24, 2, 4, 24, 48, -2, 4, 24, -48]",417395,27.0,9690.0,6.722698278557235e+18,mouselab-mdp,2
"[2895, 3522, 4074]","[u'left', u'left', u'up']",test,"[u'0', u'9', u'10', u'11']","{u'right': -62, u'up': -20, u'left': 0}","{u'mouseover': {u'state': {u'target': [], u'time': []}, u'edge': {u'target': [], u'time': []}}, u'click': {u'state': {u'target': [u'3', u'11'], u'time': [985, 1803]}, u'edge': {u'target': [], u'time': []}}, u'mouseout': {u'state': {u'target': [], u'time': []}, u'edge': {u'target': [], u'time': []}}}","[4, -8, 48]","[2880, 68, 20]",42.0,"[None, None, None]","[u'', 4, -4, -24, 24, 2, 4, -24, -48, 4, -8, 48, -48]",428002,28.0,9430.0,4.251687641687985e+18,mouselab-mdp,2
"[2796, 3413, 4030]","[u'left', u'left', u'up']",test,"[u'0', u'9', u'10', u'11']","{u'right': -42, u'up': -72, u'left': 0}","{u'mouseover': {u'state': {u'target': [], u'time': []}, u'edge': {u'target': [], u'time': []}}, u'click': {u'state': {u'target': [u'3', u'4', u'11'], u'time': [672, 1463, 1792]}, u'edge': {u'target': [], u'time': []}}, u'mouseout': {u'state': {u'target': [], u'time': []}, u'edge': {u'target': [], u'time': []}}}","[-2, 8, 48]","[2781, 75, 74]",51.0,"[None, None, None]","[u'', 2, 4, -48, -24, -4, -8, 24, -48, -2, 8, 48, -24]",438078,29.0,8900.0,-8.806789642961306e+18,mouselab-mdp,2
"[717, 2027, 2592]","[u'left', u'left', u'up']",test,"[u'0', u'9', u'10', u'11']","{u'right': 0, u'up': 0, u'left': -30}","{u'mouseover': {u'state': {u'target': [], u'time': []}, u'edge': {u'target': [], u'time': []}}, u'click': {u'state': {u'target': [], u'time': []}, u'edge': {u'target': [], u'time': []}}, u'mouseout': {u'state': {u'target': [], u'time': []}, u'edge': {u'target': [], u'time': []}}}","[-2, -8, 24]","[703, 771, 30]",14.0,"[None, None, None]","[u'', 4, -8, 24, 48, 4, -8, -24, 48, -2, -8, 24, -24]",448753,30.0,9502.0,6.60860815512509e+18,mouselab-mdp,2
"[6340, 12238, 16997]","[u'right', u'right', u'up']",pre_test,"[u'0', u'5', u'6', u'7']","{u'right': 0, u'up': -4, u'left': -80}","{u'mouseover': {u'state': {u'target': [], u'time': []}, u'edge': {u'target': [], u'time': []}}, u'click': {u'state': {u'target': [], u'time': []}, u'edge': {u'target': [], u'time': []}}, u'mouseout': {u'state': {u'target': [], u'time': []}, u'edge': {u'target': [], u'time': []}}}","[2, -4, 48]","[6336, 5373, 4245]",46.0,"[None, None, None]","[u'', -2, -4, 48, -24, 2, -4, 48, 24, -2, -8, -24, -24]",59290,0.0,21709.0,2.593864447454748e+18,mouselab-mdp,3
"[1531, 5763, 7859]","[u'left', u'left', u'down']",training,"[u'0', u'9', u'10', u'12']","{u'right': -20, u'up': -26, u'left': 0}","{u'mouseover': {u'state': {u'target': [], u'time': []}, u'edge': {u'target': [], u'time': []}}, u'click': {u'state': {u'target': [], u'time': []}, u'edge': {u'target': [], u'time': []}}, u'mouseout': {u'state': {u'target': [], u'time': []}, u'edge': {u'target': [], u'time': []}}}","[4, 4, 48]","[1523, 3730, 1589]",56.0,"[None, None, None]","[u'', 2, 4, 24, -24, 4, 8, 24, -24, 4, 4, 24, 48]",78171,1.0,11956.0,5.959115827255457e+18,mouselab-mdp,3
"[1964, 3396, 4939]","[u'up', u'up', u'left']",training,"[u'0', u'1', u'2', u'4']","{u'right': -66, u'up': 0, u'left': -62}","{u'mouseover': {u'state': {u'target': [], u'time': []}, u'edge': {u'target': [], u'time': []}}, u'click': {u'state': {u'target': [], u'time': []}, u'edge': {u'target': [], u'time': []}}, u'mouseout': {u'state': {u'target': [], u'time': []}, u'edge': {u'target': [], u'time': []}}}","[2, 4, 24]","[1958, 926, 1042]",30.0,"[None, None, None]","[u'', 2, 4, -24, 24, 4, 8, -48, -48, -4, -4, -48, -24]",89683,2.0,10429.0,-7.784032825751816e+18,mouselab-mdp,3
"[7599, 47815, 49216]","[u'up', u'up', u'right']",training,"[u'0', u'1', u'2', u'3']","{u'right': 0, u'up': -34, u'left': -28}","{u'mouseover': {u'state': {u'target': [], u'time': []}, u'edge': {u'target': [], u'time': []}}, u'click': {u'state': {u'target': [], u'time': []}, u'edge': {u'target': [], u'time': []}}, u'mouseout': {u'state': {u'target': [], u'time': []}, u'edge': {u'target': [], u'time': []}}}","[4, -8, 24]","[7595, 3706, 895]",20.0,"[None, None, None]","[u'', 4, -8, 24, 24, 2, 4, 24, 48, -2, 4, 24, -48]",142138,3.0,51407.0,6.722698278557235e+18,mouselab-mdp,3
"[4869, 17813, 19435]","[u'right', u'right', u'down']",training,"[u'0', u'5', u'6', u'8']","{u'right': -8, u'up': -8, u'left': 0}","{u'mouseover': {u'state': {u'target': [], u'time': []}, u'edge': {u'target': [], u'time': []}}, u'click': {u'state': {u'target': [], u'time': []}, u'edge': {u'target': [], u'time': []}}, u'mouseout': {u'state': {u'target': [], u'time': []}, u'edge': {u'target': [], u'time': []}}}","[2, 4, 24]","[4861, 2440, 1108]",30.0,"[None, None, None]","[u'', -2, 8, 24, -48, 2, 4, -24, 24, -2, -8, 48, -24]",165338,4.0,22115.0,6.282558609452272e+18,mouselab-mdp,3
"[8195, 107939, 109650]","[u'left', u'left', u'up']",training,"[u'0', u'9', u'10', u'11']","{u'right': -32, u'up': 0, u'left': -88}","{u'mouseover': {u'state': {u'target': [], u'time': []}, u'edge': {u'target': [], u'time': []}}, u'click': {u'state': {u'target': [], u'time': []}, u'edge': {u'target': [], u'time': []}}, u'mouseout': {u'state': {u'target': [], u'time': []}, u'edge': {u'target': [], u'time': []}}}","[-2, -4, -48]","[8190, 9242, 1205]",-54.0,"[None, None, None]","[u'', 2, 8, 48, 24, -2, 4, 24, 24, -2, -4, -48, -24]",280057,5.0,113594.0,-8.923867603615937e+18,mouselab-mdp,3
"[6575, 9030, 11214]","[u'left', u'left', u'up']",training,"[u'0', u'9', u'10', u'11']","{u'right': -90, u'up': -18, u'left': 0}","{u'mouseover': {u'state': {u'target': [], u'time': []}, u'edge': {u'target': [], u'time': []}}, u'click': {u'state': {u'target': [], u'time': []}, u'edge': {u'target': [], u'time': []}}, u'mouseout': {u'state': {u'target': [], u'time': []}, u'edge': {u'target': [], u'time': []}}}","[4, 8, 24]","[6570, 1960, 1691]",36.0,"[None, None, None]","[u'', 2, -8, -24, 48, -2, -4, -24, -24, 4, 8, 24, 48]",294449,6.0,13293.0,6.51676073778936e+18,mouselab-mdp,3
"[2712, 12318, 13743]","[u'up', u'up', u'right']",training,"[u'0', u'1', u'2', u'3']","{u'right': -44, u'up': -6, u'left': 0}","{u'mouseover': {u'state': {u'target': [], u'time': []}, u'edge': {u'target': [], u'time': []}}, u'click': {u'state': {u'target': [], u'time': []}, u'edge': {u'target': [], u'time': []}}, u'mouseout': {u'state': {u'target': [], u'time': []}, u'edge': {u'target': [], u'time': []}}}","[-2, -4, 24]","[2706, 1095, 919]",18.0,"[None, None, None]","[u'', -2, -4, 24, -48, -4, 8, -24, -24, 4, -4, -48, 24]",313209,7.0,17662.0,1.3993036559342144e+18,mouselab-mdp,3
"[1722, 3154, 4938]","[u'right', u'right', u'up']",training,"[u'0', u'5', u'6', u'7']","{u'right': 0, u'up': -6, u'left': -16}","{u'mouseover': {u'state': {u'target': [], u'time': []}, u'edge': {u'target': [], u'time': []}}, u'click': {u'state': {u'target': [], u'time': []}, u'edge': {u'target': [], u'time': []}}, u'mouseout': {u'state': {u'target': [], u'time': []}, u'edge': {u'target': [], u'time': []}}}","[4, 8, -48]","[1717, 926, 1276]",-36.0,"[None, None, None]","[u'', 2, 4, 24, -24, 4, 8, -48, 24, 4, -8, -24, 24]",326184,8.0,11889.0,8.950946188299295e+18,mouselab-mdp,3
"[1925, 76675, 77931]","[u'up', u'up', u'left']",training,"[u'0', u'1', u'2', u'4']","{u'right': -92, u'up': -66, u'left': 0}","{u'mouseover': {u'state': {u'target': [], u'time': []}, u'edge': {u'target': [], u'time': []}}, u'click': {u'state': {u'target': [], u'time': []}, u'edge': {u'target': [], u'time': []}}, u'mouseout': {u'state': {u'target': [], u'time': []}, u'edge': {u'target': [], u'time': []}}}","[2, -4, -24]","[1919, 6237, 752]",-26.0,"[None, None, None]","[u'', 2, -4, -24, -24, 4, -8, -48, -48, -4, -4, 48, 48]",407360,9.0,80059.0,-7.913607226466677e+18,mouselab-mdp,3
"[2277, 3468, 5349]","[u'left', u'left', u'down']",training,"[u'0', u'9', u'10', u'12']","{u'right': -16, u'up': -8, u'left': 0}","{u'mouseover': {u'state': {u'target': [], u'time': []}, u'edge': {u'target': [], u'time': []}}, u'click': {u'state': {u'target': [], u'time': []}, u'edge': {u'target': [], u'time': []}}, u'mouseout': {u'state': {u'target': [], u'time': []}, u'edge': {u'target': [], u'time': []}}}","[2, 4, -48]","[2269, 688, 1387]",-42.0,"[None, None, None]","[u'', 2, -4, 24, -48, -2, -8, 24, -48, 2, 4, 24, -48]",415993,10.0,7557.0,2.6530187619064013e+18,mouselab-mdp,3
"[2111, 4077, 6093]","[u'left', u'left', u'up']",test,"[u'0', u'9', u'10', u'11']","{u'right': -38, u'up': -38, u'left': 0}","{u'mouseover': {u'state': {u'target': [], u'time': []}, u'edge': {u'target': [], u'time': []}}, u'click': {u'state': {u'target': [], u'time': []}, u'edge': {u'target': [], u'time': []}}, u'mouseout': {u'state': {u'target': [], u'time': []}, u'edge': {u'target': [], u'time': []}}}","[4, -4, 24]","[2106, 1468, 1519]",24.0,"[None, None, None]","[u'', 2, 8, -48, -24, 2, 8, -24, -48, 4, -4, 24, -48]",448240,11.0,8653.0,4.953541845127005e+17,mouselab-mdp,3
"[1553, 2662, 3959]","[u'right', u'right', u'down']",test,"[u'0', u'5', u'6', u'8']","{u'right': -46, u'up': 0, u'left': -44}","{u'mouseover': {u'state': {u'target': [], u'time': []}, u'edge': {u'target': [], u'time': []}}, u'click': {u'state': {u'target': [], u'time': []}, u'edge': {u'target': [], u'time': []}}, u'mouseout': {u'state': {u'target': [], u'time': []}, u'edge': {u'target': [], u'time': []}}}","[-4, 4, -24]","[1547, 609, 791]",-24.0,"[None, None, None]","[u'', 2, -4, 24, 24, -4, 4, -24, -24, -2, 4, -24, -48]",459760,12.0,10430.0,7.862543089384343e+18,mouselab-mdp,3
"[656, 1605, 2558]","[u'up', u'up', u'left']",test,"[u'0', u'1', u'2', u'4']","{u'right': 0, u'up': -32, u'left': -6}","{u'mouseover': {u'state': {u'target': [], u'time': []}, u'edge': {u'target': [], u'time': []}}, u'click': {u'state': {u'target': [], u'time': []}, u'edge': {u'target': [], u'time': []}}, u'mouseout': {u'state': {u'target': [], u'time': []}, u'edge': {u'target': [], u'time': []}}}","[2, -4, -24]","[652, 443, 448]",-26.0,"[None, None, None]","[u'', 2, -4, 24, -24, -2, 8, 24, 48, 4, -4, 48, 48]",471489,13.0,10614.0,5.246743485396079e+18,mouselab-mdp,3
"[814, 2033, 3189]","[u'left', u'left', u'up']",test,"[u'0', u'9', u'10', u'11']","{u'right': -102, u'up': 0, u'left': -8}","{u'mouseover': {u'state': {u'target': [], u'time': []}, u'edge': {u'target': [], u'time': []}}, u'click': {u'state': {u'target': [], u'time': []}, u'edge': {u'target': [], u'time': []}}, u'mouseout': {u'state': {u'target': [], u'time': []}, u'edge': {u'target': [], u'time': []}}}","[2, -4, 24]","[808, 726, 647]",22.0,"[None, None, None]","[u'', 2, 4, -48, 48, -4, 4, -48, -48, 2, -4, 24, 48]",481113,14.0,8532.0,-5.849434166602758e+18,mouselab-mdp,3
"[701, 1877, 3684]","[u'right', u'right', u'up']",test,"[u'0', u'5', u'6', u'7']","{u'right': 0, u'up': -12, u'left': -6}","{u'mouseover': {u'state': {u'target': [], u'time': []}, u'edge': {u'target': [], u'time': []}}, u'click': {u'state': {u'target': [], u'time': []}, u'edge': {u'target': [], u'time': []}}, u'mouseout': {u'state': {u'target': [], u'time': []}, u'edge': {u'target': [], u'time': []}}}","[2, 4, -48]","[697, 672, 1313]",-42.0,"[None, None, None]","[u'', -2, -4, 48, 24, 2, 4, -48, 48, -4, 4, 48, 24]",492745,15.0,10508.0,7.946552191512982e+18,mouselab-mdp,3
"[751, 1686, 2805]","[u'up', u'up', u'right']",test,"[u'0', u'1', u'2', u'3']","{u'right': -32, u'up': -68, u'left': 0}","{u'mouseover': {u'state': {u'target': [], u'time': []}, u'edge': {u'target': [], u'time': []}}, u'click': {u'state': {u'target': [], u'time': []}, u'edge': {u'target': [], u'time': []}}, u'mouseout': {u'state': {u'target': [], u'time': []}, u'edge': {u'target': [], u'time': []}}}","[-4, 4, -24]","[743, 436, 621]",-24.0,"[None, None, None]","[u'', -4, 4, -24, -24, -4, -8, 24, -24, 4, -8, 48, -48]",504568,16.0,10740.0,4.609247180316577e+17,mouselab-mdp,3
"[1315, 2194, 3610]","[u'left', u'left', u'down']",test,"[u'0', u'9', u'10', u'12']","{u'right': 0, u'up': -6, u'left': -64}","{u'mouseover': {u'state': {u'target': [], u'time': []}, u'edge': {u'target': [], u'time': []}}, u'click': {u'state': {u'target': [], u'time': []}, u'edge': {u'target': [], u'time': []}}, u'mouseout': {u'state': {u'target': [], u'time': []}, u'edge': {u'target': [], u'time': []}}}","[-2, 8, -48]","[1312, 375, 908]",-42.0,"[None, None, None]","[u'', -4, -4, -24, 24, 2, -4, 24, -48, -2, 8, -48, -48]",514281,17.0,8618.0,-1.3896256955715197e+18,mouselab-mdp,3
"[707, 1940, 2874]","[u'right', u'right', u'down']",test,"[u'0', u'5', u'6', u'8']","{u'right': -28, u'up': 0, u'left': -28}","{u'mouseover': {u'state': {u'target': [], u'time': []}, u'edge': {u'target': [], u'time': []}}, u'click': {u'state': {u'target': [], u'time': []}, u'edge': {u'target': [], u'time': []}}, u'mouseout': {u'state': {u'target': [], u'time': []}, u'edge': {u'target': [], u'time': []}}}","[-2, -4, 24]","[701, 726, 432]",18.0,"[None, None, None]","[u'', 2, -4, 48, 24, -2, -4, 24, 24, 2, -8, -24, 24]",525945,18.0,10570.0,5.566012147915885e+17,mouselab-mdp,3
"[1141, 2042, 3033]","[u'up', u'up', u'left']",test,"[u'0', u'1', u'2', u'4']","{u'right': -74, u'up': -10, u'left': 0}","{u'mouseover': {u'state': {u'target': [], u'time': []}, u'edge': {u'target': [], u'time': []}}, u'click': {u'state': {u'target': [], u'time': []}, u'edge': {u'target': [], u'time': []}}, u'mouseout': {u'state': {u'target': [], u'time': []}, u'edge': {u'target': [], u'time': []}}}","[2, 8, -24]","[1126, 402, 494]",-14.0,"[None, None, None]","[u'', 2, 8, 24, -24, 2, -8, -24, -24, 4, -8, 48, 48]",535168,19.0,8121.0,-3.200495881349436e+18,mouselab-mdp,3
"[1084, 1933, 2804]","[u'left', u'left', u'down']",test,"[u'0', u'9', u'10', u'12']","{u'right': -56, u'up': 0, u'left': -20}","{u'mouseover': {u'state': {u'target': [], u'time': []}, u'edge': {u'target': [], u'time': []}}, u'click': {u'state': {u'target': [], u'time': []}, u'edge': {u'target': [], u'time': []}}, u'mouseout': {u'state': {u'target': [], u'time': []}, u'edge': {u'target': [], u'time': []}}}","[-2, -4, -24]","[1078, 345, 363]",-30.0,"[None, None, None]","[u'', -2, -8, 24, 48, -2, 8, -24, -24, -2, -4, 24, -24]",545776,20.0,9508.0,-3.603402282008602e+18,mouselab-mdp,3
"[412, 1284, 2133]","[u'right', u'right', u'down']",test,"[u'0', u'5', u'6', u'8']","{u'right': -12, u'up': -64, u'left': 0}","{u'mouseover': {u'state': {u'target': [], u'time': []}, u'edge': {u'target': [], u'time': []}}, u'click': {u'state': {u'target': [], u'time': []}, u'edge': {u'target': [], u'time': []}}, u'mouseout': {u'state': {u'target': [], u'time': []}, u'edge': {u'target': [], u'time': []}}}","[2, 4, 24]","[408, 367, 353]",30.0,"[None, None, None]","[u'', -2, 4, -48, -24, 2, 4, 24, 24, -2, -4, 48, -24]",554936,21.0,8060.0,7.457324294976434e+18,mouselab-mdp,3
"[431, 1208, 2063]","[u'up', u'up', u'right']",test,"[u'0', u'1', u'2', u'3']","{u'right': 0, u'up': 0, u'left': -30}","{u'mouseover': {u'state': {u'target': [], u'time': []}, u'edge': {u'target': [], u'time': []}}, u'click': {u'state': {u'target': [], u'time': []}, u'edge': {u'target': [], u'time': []}}, u'mouseout': {u'state': {u'target': [], u'time': []}, u'edge': {u'target': [], u'time': []}}}","[4, -8, 24]","[426, 278, 350]",20.0,"[None, None, None]","[u'', 4, -8, 24, 48, 4, -8, -24, 48, -2, -8, 24, -24]",563441,22.0,7424.0,6.60860815512509e+18,mouselab-mdp,3
"[623, 1566, 2461]","[u'left', u'left', u'up']",test,"[u'0', u'9', u'10', u'11']","{u'right': -30, u'up': -18, u'left': 0}","{u'mouseover': {u'state': {u'target': [], u'time': []}, u'edge': {u'target': [], u'time': []}}, u'click': {u'state': {u'target': [], u'time': []}, u'edge': {u'target': [], u'time': []}}, u'mouseout': {u'state': {u'target': [], u'time': []}, u'edge': {u'target': [], u'time': []}}}","[4, 8, -48]","[616, 439, 402]",-36.0,"[None, None, None]","[u'', -2, -4, 48, -48, 2, 4, -48, 24, 4, 8, -48, 48]",574137,23.0,9599.0,-2.817098998670331e+18,mouselab-mdp,3
"[701, 1493, 2629]","[u'right', u'right', u'up']",test,"[u'0', u'5', u'6', u'7']","{u'right': -80, u'up': 0, u'left': -6}","{u'mouseover': {u'state': {u'target': [], u'time': []}, u'edge': {u'target': [], u'time': []}}, u'click': {u'state': {u'target': [], u'time': []}, u'edge': {u'target': [], u'time': []}}, u'mouseout': {u'state': {u'target': [], u'time': []}, u'edge': {u'target': [], u'time': []}}}","[-2, -4, -48]","[694, 289, 632]",-54.0,"[None, None, None]","[u'', -2, 4, -24, 24, -2, -4, -48, -48, 4, -8, 24, 24]",584689,24.0,9470.0,2.820201947454005e+17,mouselab-mdp,3
"[615, 1518, 2423]","[u'up', u'up', u'left']",test,"[u'0', u'1', u'2', u'4']","{u'right': -60, u'up': -84, u'left': 0}","{u'mouseover': {u'state': {u'target': [], u'time': []}, u'edge': {u'target': [], u'time': []}}, u'click': {u'state': {u'target': [], u'time': []}, u'edge': {u'target': [], u'time': []}}, u'mouseout': {u'state': {u'target': [], u'time': []}, u'edge': {u'target': [], u'time': []}}}","[-2, -4, -48]","[611, 394, 402]",-54.0,"[None, None, None]","[u'', -2, -4, -48, -48, 2, -8, -24, -24, 2, 4, 24, 24]",595305,25.0,9519.0,-7.656966127788694e+18,mouselab-mdp,3
"[809, 2297, 3321]","[u'left', u'left', u'up']",test,"[u'0', u'9', u'10', u'11']","{u'right': -2, u'up': 0, u'left': -14}","{u'mouseover': {u'state': {u'target': [], u'time': []}, u'edge': {u'target': [], u'time': []}}, u'click': {u'state': {u'target': [], u'time': []}, u'edge': {u'target': [], u'time': []}}, u'mouseout': {u'state': {u'target': [], u'time': []}, u'edge': {u'target': [], u'time': []}}}","[-4, -8, -24]","[804, 982, 518]",-36.0,"[None, None, None]","[u'', -2, 4, 24, -24, -4, 4, -24, 24, -4, -8, -24, 24]",605048,26.0,8657.0,-3.142242075455045e+18,mouselab-mdp,3
"[659, 1506, 3162]","[u'right', u'right', u'up']",test,"[u'0', u'5', u'6', u'7']","{u'right': 0, u'up': -72, u'left': -8}","{u'mouseover': {u'state': {u'target': [], u'time': []}, u'edge': {u'target': [], u'time': []}}, u'click': {u'state': {u'target': [], u'time': []}, u'edge': {u'target': [], u'time': []}}, u'mouseout': {u'state': {u'target': [], u'time': []}, u'edge': {u'target': [], u'time': []}}}","[-4, 8, -48]","[656, 353, 1155]",-44.0,"[None, None, None]","[u'', -4, 8, -24, -48, -4, 8, -48, 48, 4, -8, -24, 48]",614632,27.0,8473.0,-1.4148451789680307e+18,mouselab-mdp,3
"[419, 1228, 2066]","[u'up', u'up', u'left']",test,"[u'0', u'1', u'2', u'4']","{u'right': -108, u'up': -26, u'left': 0}","{u'mouseover': {u'state': {u'target': [], u'time': []}, u'edge': {u'target': [], u'time': []}}, u'click': {u'state': {u'target': [], u'time': []}, u'edge': {u'target': [], u'time': []}}, u'mouseout': {u'state': {u'target': [], u'time': []}, u'edge': {u'target': [], u'time': []}}}","[2, -4, -48]","[412, 314, 336]",-50.0,"[None, None, None]","[u'', 2, -4, 24, -48, -4, -8, -48, -48, -4, 4, -48, 48]",624135,28.0,8434.0,2.1183359843005005e+18,mouselab-mdp,3
"[625, 1464, 2378]","[u'left', u'left', u'down']",test,"[u'0', u'9', u'10', u'12']","{u'right': -36, u'up': -2, u'left': 0}","{u'mouseover': {u'state': {u'target': [], u'time': []}, u'edge': {u'target': [], u'time': []}}, u'click': {u'state': {u'target': [], u'time': []}, u'edge': {u'target': [], u'time': []}}, u'mouseout': {u'state': {u'target': [], u'time': []}, u'edge': {u'target': [], u'time': []}}}","[-2, 4, -48]","[619, 340, 411]",-46.0,"[None, None, None]","[u'', 4, -4, 48, -48, -2, -8, 24, 24, -2, 4, 48, -48]",634432,29.0,9209.0,8.045829731203394e+18,mouselab-mdp,3
"[767, 1583, 2694]","[u'right', u'right', u'up']",test,"[u'0', u'5', u'6', u'7']","{u'right': -78, u'up': 0, u'left': -38}","{u'mouseover': {u'state': {u'target': [], u'time': []}, u'edge': {u'target': [], u'time': []}}, u'click': {u'state': {u'target': [], u'time': []}, u'edge': {u'target': [], u'time': []}}, u'mouseout': {u'state': {u'target': [], u'time': []}, u'edge': {u'target': [], u'time': []}}}","[-2, 4, -48]","[762, 305, 600]",-46.0,"[None, None, None]","[u'', 4, 4, -48, 48, -2, 4, -48, -24, -2, -4, -48, 24]",645863,30.0,10318.0,-5.006809819184351e+18,mouselab-mdp,3
"[19950, 23080, 27042]","[u'left', u'left', u'up']",pre_test,"[u'0', u'9', u'10', u'11']","{u'right': -80, u'up': 0, u'left': -6}","{u'mouseover': {u'state': {u'target': [], u'time': []}, u'edge': {u'target': [], u'time': []}}, u'click': {u'state': {u'target': [u'5', u'1', u'9'], u'time': [16334, 17547, 18507]}, u'edge': {u'target': [], u'time': []}}, u'mouseout': {u'state': {u'target': [], u'time': []}, u'edge': {u'target': [], u'time': []}}}","[4, -8, 24]","[19859, 2429, 3300]",17.0,"[None, None, None]","[u'', -2, 4, -24, 24, -2, -4, -48, -48, 4, -8, 24, 24]",116100,0.0,34918.0,2.820201947454005e+17,mouselab-mdp,4
"[14428, 29685, 31872]","[u'right', u'right', u'down']",training,"[u'0', u'5', u'6', u'8']","{u'right': -8, u'up': -8, u'left': 0}","{u'mouseover': {u'state': {u'target': [], u'time': []}, u'edge': {u'target': [], u'time': []}}, u'click': {u'state': {u'target': [u'5', u'1', u'9'], u'time': [4181, 6171, 7109]}, u'edge': {u'target': [], u'time': []}}, u'mouseout': {u'state': {u'target': [], u'time': []}, u'edge': {u'target': [], u'time': []}}}","[2, 4, 24]","[14329, 4589, 1510]",27.0,"[None, None, None]","[u'', -2, 8, 24, -48, 2, 4, -24, 24, -2, -8, 48, -24]",174646,1.0,40330.0,6.282558609452272e+18,mouselab-mdp,4
"[4419, 111250, 122141]","[u'up', u'up', u'left']",training,"[u'0', u'1', u'2', u'4']","{u'right': -18, u'up': -102, u'left': 0}","{u'mouseover': {u'state': {u'target': [], u'time': []}, u'edge': {u'target': [], u'time': []}}, u'click': {u'state': {u'target': [u'5', u'1', u'9'], u'time': [1560, 2213, 2923]}, u'edge': {u'target': [], u'time': []}}, u'mouseout': {u'state': {u'target': [], u'time': []}, u'edge': {u'target': [], u'time': []}}}","[4, -4, -48]","[4337, 2172, 10205]",-51.0,"[None, None, None]","[u'', 4, -4, -48, -48, 4, 8, 24, -24, -2, 8, 48, -48]",302373,2.0,125804.0,-6.978553059181346e+18,mouselab-mdp,4
"[16597, 19955, 22585]","[u'up', u'up', u'right']",training,"[u'0', u'1', u'2', u'3']","{u'right': -46, u'up': 0, u'left': -44}","{u'mouseover': {u'state': {u'target': [], u'time': []}, u'edge': {u'target': [], u'time': []}}, u'click': {u'state': {u'target': [u'5', u'1', u'9', u'10', u'11', u'12', u'8', u'6', u'7', u'3', u'2', u'4'], u'time': [3984, 4929, 5815, 6520, 7255, 8029, 9392, 10034, 10905, 12012, 12698, 13562]}, u'edge': {u'target': [], u'time': []}}, u'mouseout': {u'state': {u'target': [], u'time': []}, u'edge': {u'target': [], u'time': []}}}","[2, -4, 24]","[16507, 2679, 1936]",10.0,"[None, None, None]","[u'', 2, -4, 24, 24, -4, 4, -24, -24, -2, 4, -24, -48]",334666,3.0,30377.0,7.862543089384343e+18,mouselab-mdp,4
"[12356, 13349, 14521]","[u'left', u'left', u'down']",training,"[u'0', u'9', u'10', u'12']","{u'right': -30, u'up': -18, u'left': 0}","{u'mouseover': {u'state': {u'target': [], u'time': []}, u'edge': {u'target': [], u'time': []}}, u'click': {u'state': {u'target': [u'5', u'1', u'9', u'10', u'11', u'12', u'8', u'6', u'7', u'3', u'2', u'4'], u'time': [1637, 2345, 3305, 4239, 4881, 5752, 6882, 7523, 8209, 9160, 9770, 10544]}, u'edge': {u'target': [], u'time': []}}, u'mouseout': {u'state': {u'target': [], u'time': []}, u'edge': {u'target': [], u'time': []}}}","[4, 8, 48]","[12259, 318, 470]",48.0,"[None, None, None]","[u'', -2, -4, 48, -48, 2, 4, -48, 24, 4, 8, -48, 48]",354716,4.0,18131.0,-2.817098998670331e+18,mouselab-mdp,4
"[15521, 16564, 17418]","[u'left', u'left', u'down']",training,"[u'0', u'9', u'10', u'12']","{u'right': -10, u'up': -28, u'left': 0}","{u'mouseover': {u'state': {u'target': [], u'time': []}, u'edge': {u'target': [], u'time': []}}, u'click': {u'state': {u'target': [u'9', u'10', u'11', u'12', u'5', u'6', u'7', u'8', u'1', u'2', u'4', u'3'], u'time': [1876, 2740, 3505, 4310, 5921, 6560, 7274, 8451, 10187, 11106, 12077, 12916]}, u'edge': {u'target': [], u'time': []}}, u'mouseout': {u'state': {u'target': [], u'time': []}, u'edge': {u'target': [], u'time': []}}}","[-4, 8, 48]","[15424, 337, 148]",40.0,"[None, None, None]","[u'', -4, 4, 24, 24, -2, -4, 48, -24, -4, 8, -48, 48]",377586,5.0,20924.0,-4.87466613580449e+18,mouselab-mdp,4
"[14061, 15202, 16209]","[u'right', u'right', u'up']",training,"[u'0', u'5', u'6', u'7']","{u'right': 0, u'up': -6, u'left': -64}","{u'mouseover': {u'state': {u'target': [], u'time': []}, u'edge': {u'target': [], u'time': []}}, u'click': {u'state': {u'target': [u'9', u'10', u'11', u'12', u'1', u'2', u'4', u'3', u'5', u'6', u'7', u'8'], u'time': [1293, 1854, 2410, 3073, 3956, 4670, 5348, 6097, 6834, 7425, 8008, 8983]}, u'edge': {u'target': [], u'time': []}}, u'mouseout': {u'state': {u'target': [], u'time': []}, u'edge': {u'target': [], u'time': []}}}","[2, -4, 24]","[13950, 447, 303]",10.0,"[None, None, None]","[u'', -4, -4, -24, 24, 2, -4, 24, -48, -2, 8, -48, -48]",398172,6.0,18668.0,-1.3896256955715197e+18,mouselab-mdp,4
"[20923, 21863, 22762]","[u'left', u'left', u'up']",training,"[u'0', u'9', u'10', u'11']","{u'right': -12, u'up': -64, u'left': 0}","{u'mouseover': {u'state': {u'target': [], u'time': []}, u'edge': {u'target': [], u'time': []}}, u'click': {u'state': {u'target': [u'5', u'1', u'9', u'10', u'11', u'12', u'6', u'7', u'8', u'2', u'4', u'3'], u'time': [3503, 4250, 4966, 5720, 6345, 7130, 8396, 9045, 9894, 11886, 12659, 13653]}, u'edge': {u'target': [], u'time': []}}, u'mouseout': {u'state': {u'target': [], u'time': []}, u'edge': {u'target': [], u'time': []}}}","[-2, -4, 48]","[20815, 236, 170]",30.0,"[None, None, None]","[u'', -2, 4, -48, -24, 2, 4, 24, 24, -2, -4, 48, -24]",425359,7.0,25325.0,7.457324294976434e+18,mouselab-mdp,4
"[11823, 12510, 13185]","[u'left', u'left', u'up']",training,"[u'0', u'9', u'10', u'11']","{u'right': -60, u'up': -84, u'left': 0}","{u'mouseover': {u'state': {u'target': [], u'time': []}, u'edge': {u'target': [], u'time': []}}, u'click': {u'state': {u'target': [u'9', u'10', u'11', u'12', u'1', u'2', u'4', u'3', u'7', u'6', u'8', u'5'], u'time': [1520, 2109, 2685, 3317, 4039, 4677, 5252, 6544, 7515, 8071, 8721, 9460]}, u'edge': {u'target': [], u'time': []}}, u'mouseout': {u'state': {u'target': [], u'time': []}, u'edge': {u'target': [], u'time': []}}}","[2, 4, 24]","[11723, 3, 4]",18.0,"[None, None, None]","[u'', -2, -4, -48, -48, 2, -8, -24, -24, 2, 4, 24, 24]",442615,8.0,15287.0,-7.656966127788694e+18,mouselab-mdp,4
"[11556, 12455, 13353]","[u'up', u'up', u'left']",training,"[u'0', u'1', u'2', u'4']","{u'right': -98, u'up': 0, u'left': -38}","{u'mouseover': {u'state': {u'target': [], u'time': []}, u'edge': {u'target': [], u'time': []}}, u'click': {u'state': {u'target': [u'9', u'11', u'10', u'12', u'5', u'6', u'7', u'8', u'1', u'2', u'4', u'3'], u'time': [1173, 1836, 3161, 3824, 4576, 5153, 5720, 6405, 7648, 8336, 9061, 10108]}, u'edge': {u'target': [], u'time': []}}, u'mouseout': {u'state': {u'target': [], u'time': []}, u'edge': {u'target': [], u'time': []}}}","[4, 8, 48]","[11467, 225, 192]",48.0,"[None, None, None]","[u'', 4, 8, -24, 48, 2, 8, -48, -48, 2, -4, 24, -48]",459850,9.0,15189.0,-6.668518537832265e+18,mouselab-mdp,4
"[11981, 12718, 13536]","[u'left', u'left', u'down']",training,"[u'0', u'9', u'10', u'12']","{u'right': -44, u'up': -6, u'left': 0}","{u'mouseover': {u'state': {u'target': [], u'time': []}, u'edge': {u'target': [], u'time': []}}, u'click': {u'state': {u'target': [u'5', u'1', u'9', u'10', u'11', u'12', u'6', u'7', u'8', u'2', u'4', u'3'], u'time': [1470, 2123, 2746, 3264, 3840, 4468, 5390, 5905, 6779, 7912, 8499, 9204]}, u'edge': {u'target': [], u'time': []}}, u'mouseout': {u'state': {u'target': [], u'time': []}, u'edge': {u'target': [], u'time': []}}}","[4, -4, 24]","[11900, 54, 88]",12.0,"[None, None, None]","[u'', -2, -4, 24, -48, -4, 8, -24, -24, 4, -4, -48, 24]",477320,10.0,15552.0,1.3993036559342144e+18,mouselab-mdp,4
"[13700, 14435, 15206]","[u'up', u'up', u'left']",test,"[u'0', u'1', u'2', u'4']","{u'right': -102, u'up': 0, u'left': -8}","{u'mouseover': {u'state': {u'target': [], u'time': []}, u'edge': {u'target': [], u'time': []}}, u'click': {u'state': {u'target': [u'5', u'1', u'9', u'10', u'11', u'12', u'4', u'2', u'3', u'7', u'6', u'8'], u'time': [3864, 4589, 5216, 5881, 6459, 7149, 8172, 8784, 9437, 10345, 10946, 11807]}, u'edge': {u'target': [], u'time': []}}, u'mouseout': {u'state': {u'target': [], u'time': []}, u'edge': {u'target': [], u'time': []}}}","[2, 4, 48]","[13618, 13, 81]",42.0,"[None, None, None]","[u'', 2, 4, -48, 48, -4, 4, -48, -48, 2, -4, 24, 48]",518575,11.0,17078.0,-5.849434166602758e+18,mouselab-mdp,4
"[13998, 14838, 15739]","[u'right', u'right', u'down']",test,"[u'0', u'5', u'6', u'8']","{u'right': 0, u'up': -12, u'left': -6}","{u'mouseover': {u'state': {u'target': [], u'time': []}, u'edge': {u'target': [], u'time': []}}, u'click': {u'state': {u'target': [u'5', u'1', u'2', u'3', u'4', u'9', u'10', u'11', u'12', u'6', u'7', u'8'], u'time': [1237, 2075, 2803, 3392, 4078, 4768, 5689, 6354, 7399, 8651, 9378, 10373]}, u'edge': {u'target': [], u'time': []}}, u'mouseout': {u'state': {u'target': [], u'time': []}, u'edge': {u'target': [], u'time': []}}}","[2, 4, 48]","[13919, 171, 185]",42.0,"[None, None, None]","[u'', -2, -4, 48, 24, 2, 4, -48, 48, -4, 4, 48, 24]",538030,12.0,17582.0,7.946552191512982e+18,mouselab-mdp,4
"[20167, 21030, 22114]","[u'right', u'right', u'up']",test,"[u'0', u'5', u'6', u'7']","{u'right': 0, u'up': -4, u'left': -80}","{u'mouseover': {u'state': {u'target': [], u'time': []}, u'edge': {u'target': [], u'time': []}}, u'click': {u'state': {u'target': [u'5', u'1', u'9', u'10', u'11', u'12', u'6', u'7', u'8', u'2', u'3', u'4'], u'time': [1545, 2235, 2864, 3491, 4116, 4881, 5869, 6674, 7597, 8983, 9662, 17260]}, u'edge': {u'target': [], u'time': []}}, u'mouseout': {u'state': {u'target': [], u'time': []}, u'edge': {u'target': [], u'time': []}}}","[2, -4, 48]","[20087, 137, 402]",34.0,"[None, None, None]","[u'', -2, -4, 48, -24, 2, -4, 48, 24, -2, -8, -24, -24]",564235,13.0,24307.0,2.593864447454748e+18,mouselab-mdp,4
"[26924, 27755, 28927]","[u'right', u'right', u'down']",test,"[u'0', u'5', u'6', u'8']","{u'right': 0, u'up': -42, u'left': -30}","{u'mouseover': {u'state': {u'target': [], u'time': []}, u'edge': {u'target': [], u'time': []}}, u'click': {u'state': {u'target': [u'5', u'1', u'9', u'10', u'11', u'12', u'6', u'7', u'8', u'2'], u'time': [1729, 2676, 3651, 4703, 5906, 8080, 12022, 13448, 17131, 20580]}, u'edge': {u'target': [], u'time': []}}, u'mouseout': {u'state': {u'target': [], u'time': []}, u'edge': {u'target': [], u'time': []}}}","[-2, 8, 48]","[26843, 145, 450]",44.0,"[None, None, None]","[u'', -4, -8, 24, -24, -2, 8, 24, 48, 4, -4, 24, -48]",596797,14.0,30663.0,-1.1004490307225742e+18,mouselab-mdp,4
"[16224, 16938, 17780]","[u'left', u'left', u'up']",test,"[u'0', u'9', u'10', u'11']","{u'right': -36, u'up': -106, u'left': 0}","{u'mouseover': {u'state': {u'target': [], u'time': []}, u'edge': {u'target': [], u'time': []}}, u'click': {u'state': {u'target': [u'5', u'1', u'9', u'10', u'11', u'12', u'2', u'6'], u'time': [1243, 2152, 3060, 3910, 5038, 5948, 9289, 14541]}, u'edge': {u'target': [], u'time': []}}, u'mouseout': {u'state': {u'target': [], u'time': []}, u'edge': {u'target': [], u'time': []}}}","[4, -4, 48]","[16141, 2, 159]",40.0,"[None, None, None]","[u'', -2, -8, -48, -48, -4, -8, 24, 24, 4, -4, 48, -24]",619183,15.0,20475.0,-3.0273172606858936e+18,mouselab-mdp,4
"[26504, 27342, 28260]","[u'left', u'left', u'up']",test,"[u'0', u'9', u'10', u'11']","{u'right': -62, u'up': -20, u'left': 0}","{u'mouseover': {u'state': {u'target': [], u'time': []}, u'edge': {u'target': [], u'time': []}}, u'click': {u'state': {u'target': [u'5', u'1', u'9', u'10', u'2', u'4', u'3', u'11', u'6', u'7', u'8'], u'time': [983, 1724, 2926, 4289, 6869, 8380, 9496, 12050, 17020, 18518, 19809]}, u'edge': {u'target': [], u'time': []}}, u'mouseout': {u'state': {u'target': [], u'time': []}, u'edge': {u'target': [], u'time': []}}}","[4, -8, 48]","[26422, 127, 242]",33.0,"[None, None, None]","[u'', 4, -4, -24, 24, 2, 4, -24, -48, 4, -8, 48, -48]",652161,16.0,31004.0,4.251687641687985e+18,mouselab-mdp,4
"[24381, 25097, 25863]","[u'up', u'up', u'right']",test,"[u'0', u'1', u'2', u'3']","{u'right': -2, u'up': 0, u'left': -14}","{u'mouseover': {u'state': {u'target': [], u'time': []}, u'edge': {u'target': [], u'time': []}}, u'click': {u'state': {u'target': [u'5', u'1', u'9', u'2', u'4', u'3', u'10', u'11', u'12', u'6', u'7', u'8'], u'time': [885, 1659, 2482, 4311, 5453, 6584, 10781, 14885, 17055, 18803, 20062, 21220]}, u'edge': {u'target': [], u'time': []}}, u'mouseout': {u'state': {u'target': [], u'time': []}, u'edge': {u'target': [], u'time': []}}}","[-2, 4, 24]","[24297, 37, 74]",14.0,"[None, None, None]","[u'', -2, 4, 24, -24, -4, 4, -24, 24, -4, -8, -24, 24]",681359,17.0,27296.0,-3.142242075455045e+18,mouselab-mdp,4
"[19993, 20682, 21417]","[u'up', u'up', u'right']",test,"[u'0', u'1', u'2', u'3']","{u'right': -28, u'up': 0, u'left': -28}","{u'mouseover': {u'state': {u'target': [], u'time': []}, u'edge': {u'target': [], u'time': []}}, u'click': {u'state': {u'target': [u'5', u'1', u'9', u'10', u'2', u'4', u'3', u'6'], u'time': [1116, 1869, 3157, 4634, 6477, 8047, 9105, 17534]}, u'edge': {u'target': [], u'time': []}}, u'mouseout': {u'state': {u'target': [], u'time': []}, u'edge': {u'target': [], u'time': []}}}","[2, -4, 48]","[19914, 4, 53]",38.0,"[None, None, None]","[u'', 2, -4, 48, 24, -2, -4, 24, 24, 2, -8, -24, 24]",707141,18.0,23896.0,5.566012147915885e+17,mouselab-mdp,4
"[7953, 8762, 9636]","[u'left', u'left', u'up']",test,"[u'0', u'9', u'10', u'11']","{u'right': -38, u'up': -4, u'left': 0}","{u'mouseover': {u'state': {u'target': [], u'time': []}, u'edge': {u'target': [], u'time': []}}, u'click': {u'state': {u'target': [u'5', u'1', u'9', u'10', u'11'], u'time': [2140, 3220, 3897, 5162, 6513]}, u'edge': {u'target': [], u'time': []}}, u'mouseout': {u'state': {u'target': [], u'time': []}, u'edge': {u'target': [], u'time': []}}}","[4, 4, 48]","[7873, 118, 182]",51.0,"[None, None, None]","[u'', -4, 8, 48, -24, -2, -4, 24, -48, 4, 4, 48, -48]",720553,19.0,11499.0,7.26324481058999e+18,mouselab-mdp,4
"[44012, 44793, 45754]","[u'left', u'left', u'down']",test,"[u'0', u'9', u'10', u'12']","{u'right': -14, u'up': -24, u'left': 0}","{u'mouseover': {u'state': {u'target': [], u'time': []}, u'edge': {u'target': [], u'time': []}}, u'click': {u'state': {u'target': [u'5', u'1', u'9', u'6', u'8', u'7', u'2', u'10', u'11', u'12'], u'time': [1093, 2029, 2925, 4203, 6059, 7277, 28728, 31881, 33857, 35333]}, u'edge': {u'target': [], u'time': []}}, u'mouseout': {u'state': {u'target': [], u'time': []}, u'edge': {u'target': [], u'time': []}}}","[-4, 4, 48]","[43928, 115, 272]",38.0,"[None, None, None]","[u'', -4, 4, 24, 24, 2, 8, -24, 24, -4, 4, -24, 48]",772081,20.0,49596.0,5.347440239323845e+18,mouselab-mdp,4
"[6778, 7499, 8281]","[u'up', u'up', u'right']",test,"[u'0', u'1', u'2', u'3']","{u'right': -32, u'up': 0, u'left': -88}","{u'mouseover': {u'state': {u'target': [], u'time': []}, u'edge': {u'target': [], u'time': []}}, u'click': {u'state': {u'target': [u'5', u'1', u'9', u'2', u'3'], u'time': [1281, 2078, 3003, 4135, 5407]}, u'edge': {u'target': [], u'time': []}}, u'mouseout': {u'state': {u'target': [], u'time': []}, u'edge': {u'target': [], u'time': []}}}","[2, 8, 48]","[6697, 14, 133]",53.0,"[None, None, None]","[u'', 2, 8, 48, 24, -2, 4, 24, 24, -2, -4, -48, -24]",784089,21.0,10120.0,-8.923867603615937e+18,mouselab-mdp,4
"[13951, 14826, 15818]","[u'left', u'left', u'up']",test,"[u'0', u'9', u'10', u'11']","{u'right': -42, u'up': -72, u'left': 0}","{u'mouseover': {u'state': {u'target': [], u'time': []}, u'edge': {u'target': [], u'time': []}}, u'click': {u'state': {u'target': [u'5', u'1', u'9', u'2', u'4', u'3', u'10', u'11'], u'time': [1269, 2046, 2904, 4017, 5252, 6357, 9058, 10581]}, u'edge': {u'target': [], u'time': []}}, u'mouseout': {u'state': {u'target': [], u'time': []}, u'edge': {u'target': [], u'time': []}}}","[-2, 8, 48]","[13870, 172, 274]",46.0,"[None, None, None]","[u'', 2, 4, -48, -24, -4, -8, 24, -48, -2, 8, 48, -24]",803357,22.0,17377.0,-8.806789642961306e+18,mouselab-mdp,4
"[17428, 18241, 19111]","[u'right', u'right', u'up']",test,"[u'0', u'5', u'6', u'7']","{u'right': 0, u'up': -68, u'left': -66}","{u'mouseover': {u'state': {u'target': [], u'time': []}, u'edge': {u'target': [], u'time': []}}, u'click': {u'state': {u'target': [u'5', u'1', u'9', u'10', u'12', u'11', u'2', u'3', u'4', u'6', u'7'], u'time': [1136, 2057, 2872, 4341, 6110, 7207, 8902, 10202, 11270, 13801, 15300]}, u'edge': {u'target': [], u'time': []}}, u'mouseout': {u'state': {u'target': [], u'time': []}, u'edge': {u'target': [], u'time': []}}}","[-2, 8, 48]","[17347, 149, 175]",43.0,"[None, None, None]","[u'', 2, 8, -24, -48, -2, 8, 48, 24, 4, 8, -24, -48]",826214,23.0,20940.0,7.708577571422581e+18,mouselab-mdp,4
"[15334, 16084, 17039]","[u'up', u'up', u'left']",test,"[u'0', u'1', u'2', u'4']","{u'right': -2, u'up': 0, u'left': -32}","{u'mouseover': {u'state': {u'target': [], u'time': []}, u'edge': {u'target': [], u'time': []}}, u'click': {u'state': {u'target': [u'5', u'1', u'9', u'10', u'2', u'4'], u'time': [7316, 8131, 9063, 10305, 11628, 13095]}, u'edge': {u'target': [], u'time': []}}, u'mouseout': {u'state': {u'target': [], u'time': []}, u'edge': {u'target': [], u'time': []}}}","[2, 4, 48]","[15252, 54, 190]",48.0,"[None, None, None]","[u'', 2, 4, -24, 48, -4, 8, -48, 48, 2, -4, 24, -24]",847655,24.0,19546.0,-8.327671364504025e+18,mouselab-mdp,4
"[32561, 33292, 34130]","[u'right', u'right', u'down']",test,"[u'0', u'5', u'6', u'8']","{u'right': 0, u'up': -14, u'left': -8}","{u'mouseover': {u'state': {u'target': [], u'time': []}, u'edge': {u'target': [], u'time': []}}, u'click': {u'state': {u'target': [u'5', u'1', u'9', u'2', u'3', u'4', u'10', u'11', u'12', u'6', u'8'], u'time': [1692, 3030, 4285, 5698, 6936, 8145, 10216, 11742, 13084, 20433, 28557]}, u'edge': {u'target': [], u'time': []}}, u'mouseout': {u'state': {u'target': [], u'time': []}, u'edge': {u'target': [], u'time': []}}}","[-2, 4, 48]","[32478, 10, 156]",39.0,"[None, None, None]","[u'', 4, 8, -24, 24, -2, 4, -24, 48, 2, -8, 24, 48]",885286,25.0,35629.0,8.866052500453722e+18,mouselab-mdp,4
"[19070, 19780, 20564]","[u'up', u'up', u'right']",test,"[u'0', u'1', u'2', u'3']","{u'right': -82, u'up': 0, u'left': -12}","{u'mouseover': {u'state': {u'target': [], u'time': []}, u'edge': {u'target': [], u'time': []}}, u'click': {u'state': {u'target': [u'5', u'1', u'9', u'6', u'7', u'8', u'2', u'4', u'3'], u'time': [1119, 1878, 2630, 4521, 7037, 8499, 10710, 11963, 13197]}, u'edge': {u'target': [], u'time': []}}, u'mouseout': {u'state': {u'target': [], u'time': []}, u'edge': {u'target': [], u'time': []}}}","[-4, 8, 48]","[18987, 3, 102]",43.0,"[None, None, None]","[u'', -4, 8, 48, 24, 2, -8, -48, -24, -4, -4, 48, -24]",909872,26.0,22671.0,3.4197695056242627e+18,mouselab-mdp,4
"[24942, 25630, 26383]","[u'left', u'left', u'down']",test,"[u'0', u'9', u'10', u'12']","{u'right': -14, u'up': -90, u'left': 0}","{u'mouseover': {u'state': {u'target': [], u'time': []}, u'edge': {u'target': [], u'time': []}}, u'click': {u'state': {u'target': [u'5', u'1', u'9', u'2', u'4', u'3', u'10', u'6', u'7', u'8', u'12'], u'time': [1076, 2085, 2861, 4165, 6119, 7259, 9272, 12427, 13853, 15267, 19290]}, u'edge': {u'target': [], u'time': []}}, u'mouseout': {u'state': {u'target': [], u'time': []}, u'edge': {u'target': [], u'time': []}}}","[-2, -8, 48]","[24862, 4, 55]",27.0,"[None, None, None]","[u'', 4, -8, -48, -48, -4, 4, 24, 24, -2, -8, -24, 48]",939912,27.0,28095.0,-4.5694966460626975e+18,mouselab-mdp,4
"[10109, 10843, 11717]","[u'right', u'right', u'up']",test,"[u'0', u'5', u'6', u'7']","{u'right': 0, u'up': -94, u'left': -78}","{u'mouseover': {u'state': {u'target': [], u'time': []}, u'edge': {u'target': [], u'time': []}}, u'click': {u'state': {u'target': [u'5', u'1', u'6', u'7'], u'time': [998, 1907, 6253, 8402]}, u'edge': {u'target': [], u'time': []}}, u'mouseout': {u'state': {u'target': [], u'time': []}, u'edge': {u'target': [], u'time': []}}}","[4, 8, 48]","[10026, 50, 200]",56.0,"[None, None, None]","[u'', -2, -8, -24, -24, 4, 8, 48, 24, -2, 8, -24, -48]",955082,28.0,13272.0,4.0797524101430456e+18,mouselab-mdp,4
"[28349, 29057, 29792]","[u'left', u'left', u'up']",test,"[u'0', u'9', u'10', u'11']","{u'right': -32, u'up': -68, u'left': 0}","{u'mouseover': {u'state': {u'target': [], u'time': []}, u'edge': {u'target': [], u'time': []}}, u'click': {u'state': {u'target': [u'5', u'1', u'9', u'10', u'11', u'2', u'3', u'4', u'6'], u'time': [1115, 2267, 3289, 4577, 6227, 12546, 22220, 23624, 24943]}, u'edge': {u'target': [], u'time': []}}, u'mouseout': {u'state': {u'target': [], u'time': []}, u'edge': {u'target': [], u'time': []}}}","[4, -8, 48]","[28270, 4, 69]",35.0,"[None, None, None]","[u'', -4, 4, -24, -24, -4, -8, 24, -24, 4, -8, 48, -48]",988669,29.0,31702.0,4.609247180316577e+17,mouselab-mdp,4
"[20154, 20962, 22136]","[u'right', u'right', u'down']",test,"[u'0', u'5', u'6', u'8']","{u'right': 0, u'up': -72, u'left': -8}","{u'mouseover': {u'state': {u'target': [], u'time': []}, u'edge': {u'target': [], u'time': []}}, u'click': {u'state': {u'target': [u'5', u'1', u'9', u'10', u'11', u'12', u'6', u'8'], u'time': [1452, 2399, 3349, 4345, 5917, 7217, 12094, 14133]}, u'edge': {u'target': [], u'time': []}}, u'mouseout': {u'state': {u'target': [], u'time': []}, u'edge': {u'target': [], u'time': []}}}","[-4, 8, 48]","[20073, 112, 466]",44.0,"[None, None, None]","[u'', -4, 8, -24, -48, -4, 8, -48, 48, 4, -8, -24, 48]",1014760,30.0,24208.0,-1.4148451789680307e+18,mouselab-mdp,4
