action_times,actions,block,delays,path,prs,queries,rewards,rt,score,simulation_mode,state_rewards,time_elapsed,trial_index,trial_time,trial_id,trial_type,pid
"[20095, 21403, 22405]","[u'up', u'up', u'left']",training,[],"[u'0', u'1', u'2', u'4']","{u'right': -98, u'up': 0, u'left': -38}","{u'mouseover': {u'state': {u'target': [], u'time': []}, u'edge': {u'target': [], u'time': []}}, u'click': {u'state': {u'target': [u'8', u'5', u'6', u'7', u'9', u'10', u'11', u'12', u'1', u'2', u'4', u'3'], u'time': [7822, 8782, 9630, 10129, 11268, 11645, 12144, 12610, 13438, 14076, 15132, 15554]}, u'edge': {u'target': [], u'time': []}}, u'mouseout': {u'state': {u'target': [], u'time': []}, u'edge': {u'target': [], u'time': []}}}","[4, 8, 48]","[20090, 796, 483]",48.0,"[None, None, None]","[u'', 4, 8, -24, 48, 2, 8, -48, -48, 2, -4, 24, -48]",109038,0.0,24250.0,-6.668518537832265e+18,mouselab-mdp,0
"[11786, 12354, 12873]","[u'up', u'up', u'right']",training,[],"[u'0', u'1', u'2', u'3']","{u'right': -22, u'up': 0, u'left': -30}","{u'mouseover': {u'state': {u'target': [], u'time': []}, u'edge': {u'target': [], u'time': []}}, u'click': {u'state': {u'target': [u'5', u'9', u'1', u'10', u'2', u'4', u'3', u'11', u'12', u'7', u'8', u'6'], u'time': [2270, 2972, 3585, 4911, 5465, 5805, 6524, 8307, 8765, 9383, 9761, 10407]}, u'edge': {u'target': [], u'time': []}}, u'mouseout': {u'state': {u'target': [], u'time': []}, u'edge': {u'target': [], u'time': []}}}","[-2, 4, 48]","[11779, 54, 5]",38.0,"[None, None, None]","[u'', -2, 4, 48, 24, -4, 8, -48, 24, 4, -8, 24, 24]",124902,1.0,14768.0,-1.461775893828862e+18,mouselab-mdp,0
"[7115, 7828, 8633]","[u'left', u'left', u'up']",training,[],"[u'0', u'9', u'10', u'11']","{u'right': -32, u'up': -68, u'left': 0}","{u'mouseover': {u'state': {u'target': [], u'time': []}, u'edge': {u'target': [], u'time': []}}, u'click': {u'state': {u'target': [u'9', u'2', u'3', u'4', u'11', u'12', u'7', u'8'], u'time': [1538, 2228, 2609, 3136, 3718, 4266, 4863, 5383]}, u'edge': {u'target': [], u'time': []}}, u'mouseout': {u'state': {u'target': [], u'time': []}, u'edge': {u'target': [], u'time': []}}}","[4, -8, 48]","[7111, 194, 283]",36.0,"[None, None, None]","[u'', -4, 4, -24, -24, -4, -8, 24, -24, 4, -8, 48, -48]",141341,2.0,15380.0,4.609247180316577e+17,mouselab-mdp,0
"[8480, 9092, 10410]","[u'up', u'up', u'right']",training,[],"[u'0', u'1', u'2', u'3']","{u'right': -46, u'up': 0, u'left': -44}","{u'mouseover': {u'state': {u'target': [], u'time': []}, u'edge': {u'target': [], u'time': []}}, u'click': {u'state': {u'target': [u'7', u'8', u'11', u'12', u'4', u'3'], u'time': [1330, 2198, 2846, 3370, 3995, 4716]}, u'edge': {u'target': [], u'time': []}}, u'mouseout': {u'state': {u'target': [], u'time': []}, u'edge': {u'target': [], u'time': []}}}","[2, -4, 24]","[8476, 93, 811]",16.0,"[None, None, None]","[u'', 2, -4, 24, 24, -4, 4, -24, -24, -2, 4, -24, -48]",154331,3.0,11942.0,7.862543089384343e+18,mouselab-mdp,0
"[8025, 17779, 18385]","[u'up', u'up', u'right']",training,[],"[u'0', u'1', u'2', u'3']","{u'right': -38, u'up': -4, u'left': 0}","{u'mouseover': {u'state': {u'target': [], u'time': []}, u'edge': {u'target': [], u'time': []}}, u'click': {u'state': {u'target': [u'3', u'4', u'11', u'12', u'7', u'8', u'2', u'10'], u'time': [683, 1227, 2115, 2593, 3220, 3790, 5378, 5957]}, u'edge': {u'target': [], u'time': []}}, u'mouseout': {u'state': {u'target': [], u'time': []}, u'edge': {u'target': [], u'time': []}}}","[-4, 8, 48]","[8020, 3234, 92]",44.0,"[None, None, None]","[u'', -4, 8, 48, -24, -2, -4, 24, -48, 4, 4, 48, -48]",175754,4.0,20335.0,7.26324481058999e+18,mouselab-mdp,0
"[11651, 12654, 13291]","[u'right', u'right', u'down']",training,[],"[u'0', u'5', u'6', u'8']","{u'right': 0, u'up': -94, u'left': -56}","{u'mouseover': {u'state': {u'target': [], u'time': []}, u'edge': {u'target': [], u'time': []}}, u'click': {u'state': {u'target': [u'7', u'8', u'3', u'4', u'11', u'12', u'10', u'9', u'6', u'5', u'1', u'2'], u'time': [1821, 2389, 2952, 3994, 4469, 4889, 7904, 8296, 8885, 9456, 9848, 10525]}, u'edge': {u'target': [], u'time': []}}, u'mouseout': {u'state': {u'target': [], u'time': []}, u'edge': {u'target': [], u'time': []}}}","[-2, -8, 48]","[11648, 482, 118]",26.0,"[None, None, None]","[u'', -4, -4, -48, -48, -2, -8, 24, 48, 2, 4, -24, -48]",191741,5.0,14941.0,-1.84824368346445e+18,mouselab-mdp,0
"[4920, 5516, 6552]","[u'left', u'left', u'up']",training,[],"[u'0', u'9', u'10', u'11']","{u'right': -8, u'up': -8, u'left': 0}","{u'mouseover': {u'state': {u'target': [], u'time': []}, u'edge': {u'target': [], u'time': []}}, u'click': {u'state': {u'target': [u'3', u'4', u'11', u'12', u'7', u'8'], u'time': [737, 1501, 2061, 2572, 3205, 3640]}, u'edge': {u'target': [], u'time': []}}, u'mouseout': {u'state': {u'target': [], u'time': []}, u'edge': {u'target': [], u'time': []}}}","[-2, -8, 48]","[4915, 79, 516]",32.0,"[None, None, None]","[u'', -2, 8, 24, -48, 2, 4, -24, 24, -2, -8, 48, -24]",204240,6.0,11444.0,6.282558609452272e+18,mouselab-mdp,0
"[9041, 9668, 10755]","[u'right', u'right', u'down']",training,[],"[u'0', u'5', u'6', u'8']","{u'right': 0, u'up': -32, u'left': -6}","{u'mouseover': {u'state': {u'target': [], u'time': []}, u'edge': {u'target': [], u'time': []}}, u'click': {u'state': {u'target': [u'3', u'4', u'11', u'12', u'7', u'8', u'6', u'10', u'5', u'9'], u'time': [1152, 1756, 2256, 3206, 3772, 4180, 5483, 6312, 6948, 7316]}, u'edge': {u'target': [], u'time': []}}, u'mouseout': {u'state': {u'target': [], u'time': []}, u'edge': {u'target': [], u'time': []}}}","[-2, 8, 48]","[9037, 121, 573]",44.0,"[None, None, None]","[u'', 2, -4, 24, -24, -2, 8, 24, 48, 4, -4, 48, 48]",217447,7.0,12152.0,5.246743485396079e+18,mouselab-mdp,0
"[4356, 5375, 6184]","[u'left', u'left', u'down']",training,[],"[u'0', u'9', u'10', u'12']","{u'right': -14, u'up': -24, u'left': 0}","{u'mouseover': {u'state': {u'target': [], u'time': []}, u'edge': {u'target': [], u'time': []}}, u'click': {u'state': {u'target': [u'3', u'4', u'11', u'12', u'7', u'8'], u'time': [455, 1030, 1477, 2253, 2813, 3249]}, u'edge': {u'target': [], u'time': []}}, u'mouseout': {u'state': {u'target': [], u'time': []}, u'edge': {u'target': [], u'time': []}}}","[-4, 4, 48]","[4351, 523, 299]",42.0,"[None, None, None]","[u'', -4, 4, 24, 24, 2, 8, -24, 24, -4, 4, -24, 48]",226427,8.0,7907.0,5.347440239323845e+18,mouselab-mdp,0
"[4494, 5267, 6012]","[u'up', u'up', u'right']",training,[],"[u'0', u'1', u'2', u'3']","{u'right': -42, u'up': 0, u'left': -94}","{u'mouseover': {u'state': {u'target': [], u'time': []}, u'edge': {u'target': [], u'time': []}}, u'click': {u'state': {u'target': [u'3', u'4', u'12', u'11', u'7', u'8'], u'time': [666, 1409, 1912, 2325, 3132, 3447]}, u'edge': {u'target': [], u'time': []}}, u'mouseout': {u'state': {u'target': [], u'time': []}, u'edge': {u'target': [], u'time': []}}}","[2, 8, 48]","[4490, 253, 230]",52.0,"[None, None, None]","[u'', 2, 8, 48, -24, -4, -4, -48, 24, -4, -8, -48, -24]",236076,9.0,8607.0,2.372710761025483e+18,mouselab-mdp,0
"[4757, 5264, 6496]","[u'right', u'right', u'down']",test,[],"[u'0', u'5', u'6', u'8']","{u'right': 0, u'up': -48, u'left': -66}","{u'mouseover': {u'state': {u'target': [], u'time': []}, u'edge': {u'target': [], u'time': []}}, u'click': {u'state': {u'target': [u'3', u'4', u'11', u'12', u'7', u'8'], u'time': [911, 1539, 2035, 2469, 3049, 3528]}, u'edge': {u'target': [], u'time': []}}, u'mouseout': {u'state': {u'target': [], u'time': []}, u'edge': {u'target': [], u'time': []}}}","[-4, -8, 48]","[4754, 1, 698]",30.0,"[None, None, None]","[u'', 4, 8, -24, -24, -4, -8, -48, 48, 2, -8, -24, -48]",305111,10.0,9639.0,2.63044322053822e+18,mouselab-mdp,0
"[6647, 7314, 7851]","[u'up', u'up', u'left']",test,[],"[u'0', u'1', u'2', u'4']","{u'right': -66, u'up': 0, u'left': -62}","{u'mouseover': {u'state': {u'target': [], u'time': []}, u'edge': {u'target': [], u'time': []}}, u'click': {u'state': {u'target': [u'3', u'4', u'11', u'12', u'7', u'8'], u'time': [537, 1075, 1519, 1991, 2555, 2925]}, u'edge': {u'target': [], u'time': []}}, u'mouseout': {u'state': {u'target': [], u'time': []}, u'edge': {u'target': [], u'time': []}}}","[2, 4, 24]","[6638, 158, 28]",24.0,"[None, None, None]","[u'', 2, 4, -24, 24, 4, 8, -48, -48, -4, -4, -48, -24]",316187,11.0,9979.0,-7.784032825751816e+18,mouselab-mdp,0
"[4425, 4972, 5603]","[u'left', u'left', u'up']",test,[],"[u'0', u'9', u'10', u'11']","{u'right': -38, u'up': -38, u'left': 0}","{u'mouseover': {u'state': {u'target': [], u'time': []}, u'edge': {u'target': [], u'time': []}}, u'click': {u'state': {u'target': [u'12', u'11', u'4', u'3', u'7', u'8'], u'time': [904, 1344, 1760, 2152, 2571, 3375]}, u'edge': {u'target': [], u'time': []}}, u'mouseout': {u'state': {u'target': [], u'time': []}, u'edge': {u'target': [], u'time': []}}}","[4, -4, 24]","[4422, 29, 109]",18.0,"[None, None, None]","[u'', 2, 8, -48, -24, 2, 8, -24, -48, 4, -4, 24, -48]",326752,12.0,9519.0,4.953541845127005e+17,mouselab-mdp,0
"[4142, 4838, 5747]","[u'right', u'right', u'down']",test,[],"[u'0', u'5', u'6', u'8']","{u'right': 0, u'up': -42, u'left': -30}","{u'mouseover': {u'state': {u'target': [], u'time': []}, u'edge': {u'target': [], u'time': []}}, u'click': {u'state': {u'target': [u'3', u'4', u'11', u'12', u'7', u'8'], u'time': [534, 1131, 1576, 1994, 2638, 3078]}, u'edge': {u'target': [], u'time': []}}, u'mouseout': {u'state': {u'target': [], u'time': []}, u'edge': {u'target': [], u'time': []}}}","[-2, 8, 48]","[4138, 174, 399]",48.0,"[None, None, None]","[u'', -4, -8, 24, -24, -2, 8, 24, 48, 4, -4, 24, -48]",337511,13.0,9703.0,-1.1004490307225742e+18,mouselab-mdp,0
"[7130, 7725, 8281]","[u'right', u'right', u'up']",test,[],"[u'0', u'5', u'6', u'7']","{u'right': 0, u'up': -6, u'left': -64}","{u'mouseover': {u'state': {u'target': [], u'time': []}, u'edge': {u'target': [], u'time': []}}, u'click': {u'state': {u'target': [u'3', u'4', u'11', u'12', u'7', u'8', u'6', u'2', u'5', u'1'], u'time': [399, 902, 1367, 1846, 2386, 3134, 3858, 4534, 5555, 6271]}, u'edge': {u'target': [], u'time': []}}, u'mouseout': {u'state': {u'target': [], u'time': []}, u'edge': {u'target': [], u'time': []}}}","[2, -4, 24]","[7127, 80, 37]",12.0,"[None, None, None]","[u'', -4, -4, -24, 24, 2, -4, 24, -48, -2, 8, -48, -48]",348301,14.0,9747.0,-1.3896256955715197e+18,mouselab-mdp,0
"[7327, 7984, 8697]","[u'right', u'right', u'down']",test,[],"[u'0', u'5', u'6', u'8']","{u'right': -6, u'up': -24, u'left': 0}","{u'mouseover': {u'state': {u'target': [], u'time': []}, u'edge': {u'target': [], u'time': []}}, u'click': {u'state': {u'target': [u'4', u'3', u'7', u'8', u'11', u'12', u'10', u'6'], u'time': [919, 1436, 2080, 2546, 3559, 4004, 4678, 5204]}, u'edge': {u'target': [], u'time': []}}, u'mouseout': {u'state': {u'target': [], u'time': []}, u'edge': {u'target': [], u'time': []}}}","[-2, -4, 48]","[7324, 140, 203]",34.0,"[None, None, None]","[u'', 4, -4, -48, 24, -2, -4, 24, 48, 4, -4, 48, -48]",359780,15.0,10396.0,3.2058837162677184e+17,mouselab-mdp,0
"[6762, 7320, 7901]","[u'up', u'up', u'right']",test,[],"[u'0', u'1', u'2', u'3']","{u'right': -44, u'up': -6, u'left': 0}","{u'mouseover': {u'state': {u'target': [], u'time': []}, u'edge': {u'target': [], u'time': []}}, u'click': {u'state': {u'target': [u'3', u'4', u'11', u'12', u'7', u'8', u'2', u'10'], u'time': [737, 1266, 1704, 2129, 2719, 3220, 4747, 5249]}, u'edge': {u'target': [], u'time': []}}, u'mouseout': {u'state': {u'target': [], u'time': []}, u'edge': {u'target': [], u'time': []}}}","[-2, -4, 24]","[6759, 36, 66]",10.0,"[None, None, None]","[u'', -2, -4, 24, -48, -4, 8, -24, -24, 4, -4, -48, 24]",371648,16.0,10827.0,1.3993036559342144e+18,mouselab-mdp,0
"[5987, 6556, 7631]","[u'left', u'left', u'down']",test,[],"[u'0', u'9', u'10', u'12']","{u'right': -74, u'up': -10, u'left': 0}","{u'mouseover': {u'state': {u'target': [], u'time': []}, u'edge': {u'target': [], u'time': []}}, u'click': {u'state': {u'target': [u'4', u'3', u'7', u'8', u'11', u'12'], u'time': [360, 945, 1565, 2013, 2624, 3179]}, u'edge': {u'target': [], u'time': []}}, u'mouseout': {u'state': {u'target': [], u'time': []}, u'edge': {u'target': [], u'time': []}}}","[4, -8, 48]","[5985, 50, 559]",38.0,"[None, None, None]","[u'', 2, 8, 24, -24, 2, -8, -24, -24, 4, -8, 48, 48]",382941,17.0,10263.0,-3.200495881349436e+18,mouselab-mdp,0
"[8216, 9557, 10181]","[u'right', u'right', u'down']",test,[],"[u'0', u'5', u'6', u'8']","{u'right': 0, u'up': -12, u'left': -6}","{u'mouseover': {u'state': {u'target': [], u'time': []}, u'edge': {u'target': [], u'time': []}}, u'click': {u'state': {u'target': [u'4', u'3', u'7', u'8', u'11', u'12', u'10', u'6', u'2'], u'time': [721, 1223, 2012, 2465, 3038, 3520, 4283, 5180, 5842]}, u'edge': {u'target': [], u'time': []}}, u'mouseout': {u'state': {u'target': [], u'time': []}, u'edge': {u'target': [], u'time': []}}}","[2, 4, 48]","[8214, 821, 114]",45.0,"[None, None, None]","[u'', -2, -4, 48, 24, 2, 4, -48, 48, -4, 4, 48, 24]",395538,18.0,11560.0,7.946552191512982e+18,mouselab-mdp,0
"[5917, 6549, 7467]","[u'left', u'left', u'up']",test,[],"[u'0', u'9', u'10', u'11']","{u'right': -92, u'up': -66, u'left': 0}","{u'mouseover': {u'state': {u'target': [], u'time': []}, u'edge': {u'target': [], u'time': []}}, u'click': {u'state': {u'target': [u'11', u'4', u'3', u'7', u'8', u'12'], u'time': [771, 2272, 3342, 4093, 4487, 4997]}, u'edge': {u'target': [], u'time': []}}, u'mouseout': {u'state': {u'target': [], u'time': []}, u'edge': {u'target': [], u'time': []}}}","[-4, -4, 48]","[5911, 123, 407]",34.0,"[None, None, None]","[u'', 2, -4, -24, -24, 4, -8, -48, -48, -4, -4, 48, 48]",407102,19.0,10487.0,-7.913607226466677e+18,mouselab-mdp,0
"[3015, 3654, 4277]","[u'up', u'up', u'right']",test,[],"[u'0', u'1', u'2', u'3']","{u'right': -18, u'up': 0, u'left': -44}","{u'mouseover': {u'state': {u'target': [], u'time': []}, u'edge': {u'target': [], u'time': []}}, u'click': {u'state': {u'target': [u'4', u'3'], u'time': [795, 1936]}, u'edge': {u'target': [], u'time': []}}, u'mouseout': {u'state': {u'target': [], u'time': []}, u'edge': {u'target': [], u'time': []}}}","[4, 4, 48]","[3013, 131, 104]",54.0,"[None, None, None]","[u'', 4, 4, 48, -48, -2, -8, 48, -24, -4, -8, 24, -48]",417435,20.0,9289.0,-4.670080337334774e+18,mouselab-mdp,0
"[1772, 2571, 3334]","[u'up', u'up', u'left']",test,[],"[u'0', u'1', u'2', u'4']","{u'right': -102, u'up': 0, u'left': -8}","{u'mouseover': {u'state': {u'target': [], u'time': []}, u'edge': {u'target': [], u'time': []}}, u'click': {u'state': {u'target': [u'4'], u'time': [446]}, u'edge': {u'target': [], u'time': []}}, u'mouseout': {u'state': {u'target': [], u'time': []}, u'edge': {u'target': [], u'time': []}}}","[2, 4, 48]","[1770, 279, 241]",53.0,"[None, None, None]","[u'', 2, 4, -48, 48, -4, 4, -48, -48, 2, -4, 24, 48]",429215,21.0,10744.0,-5.849434166602758e+18,mouselab-mdp,0
"[4505, 5107, 5798]","[u'right', u'right', u'up']",test,[],"[u'0', u'5', u'6', u'7']","{u'right': 0, u'up': -94, u'left': -78}","{u'mouseover': {u'state': {u'target': [], u'time': []}, u'edge': {u'target': [], u'time': []}}, u'click': {u'state': {u'target': [u'3', u'11', u'12', u'4', u'7'], u'time': [638, 1632, 2115, 2836, 3391]}, u'edge': {u'target': [], u'time': []}}, u'mouseout': {u'state': {u'target': [], u'time': []}, u'edge': {u'target': [], u'time': []}}}","[4, 8, 48]","[4502, 79, 170]",55.0,"[None, None, None]","[u'', -2, -8, -24, -24, 4, 8, 48, 24, -2, 8, -24, -48]",440299,22.0,10034.0,4.0797524101430456e+18,mouselab-mdp,0
"[3506, 4236, 5024]","[u'up', u'up', u'right']",test,[],"[u'0', u'1', u'2', u'3']","{u'right': -32, u'up': 0, u'left': -88}","{u'mouseover': {u'state': {u'target': [], u'time': []}, u'edge': {u'target': [], u'time': []}}, u'click': {u'state': {u'target': [u'4', u'3'], u'time': [1350, 2373]}, u'edge': {u'target': [], u'time': []}}, u'mouseout': {u'state': {u'target': [], u'time': []}, u'edge': {u'target': [], u'time': []}}}","[2, 8, 48]","[3502, 224, 279]",56.0,"[None, None, None]","[u'', 2, 8, 48, 24, -2, 4, 24, 24, -2, -4, -48, -24]",449696,23.0,8354.0,-8.923867603615937e+18,mouselab-mdp,0
"[5261, 5865, 6452]","[u'left', u'left', u'down']",test,[],"[u'0', u'9', u'10', u'12']","{u'right': -14, u'up': -90, u'left': 0}","{u'mouseover': {u'state': {u'target': [], u'time': []}, u'edge': {u'target': [], u'time': []}}, u'click': {u'state': {u'target': [u'4', u'3', u'7', u'8', u'11', u'12'], u'time': [625, 1328, 2189, 2795, 3469, 4279]}, u'edge': {u'target': [], u'time': []}}, u'mouseout': {u'state': {u'target': [], u'time': []}, u'edge': {u'target': [], u'time': []}}}","[-2, -8, 48]","[5257, 91, 79]",32.0,"[None, None, None]","[u'', 4, -8, -48, -48, -4, 4, 24, 24, -2, -8, -24, 48]",459058,24.0,8332.0,-4.5694966460626975e+18,mouselab-mdp,0
"[1753, 2359, 3121]","[u'up', u'up', u'right']",test,[],"[u'0', u'1', u'2', u'3']","{u'right': 0, u'up': -4, u'left': -80}","{u'mouseover': {u'state': {u'target': [], u'time': []}, u'edge': {u'target': [], u'time': []}}, u'click': {u'state': {u'target': [u'3'], u'time': [954]}, u'edge': {u'target': [], u'time': []}}, u'mouseout': {u'state': {u'target': [], u'time': []}, u'edge': {u'target': [], u'time': []}}}","[-2, -4, 48]","[1750, 86, 250]",41.0,"[None, None, None]","[u'', -2, -4, 48, -24, 2, -4, 48, 24, -2, -8, -24, -24]",468919,25.0,8811.0,2.593864447454748e+18,mouselab-mdp,0
"[4272, 4853, 5533]","[u'up', u'up', u'right']",test,[],"[u'0', u'1', u'2', u'3']","{u'right': -24, u'up': 0, u'left': -36}","{u'mouseover': {u'state': {u'target': [], u'time': []}, u'edge': {u'target': [], u'time': []}}, u'click': {u'state': {u'target': [u'7', u'12', u'11', u'4', u'3'], u'time': [548, 1609, 2352, 2949, 3373]}, u'edge': {u'target': [], u'time': []}}, u'mouseout': {u'state': {u'target': [], u'time': []}, u'edge': {u'target': [], u'time': []}}}","[-4, 4, 48]","[4268, 76, 186]",43.0,"[None, None, None]","[u'', -4, 4, 48, -48, -4, 4, -24, 24, -4, -8, 24, 24]",479942,26.0,9964.0,-5.995301136843023e+18,mouselab-mdp,0
"[5500, 6108, 7107]","[u'left', u'left', u'up']",test,[],"[u'0', u'9', u'10', u'11']","{u'right': -80, u'up': 0, u'left': -6}","{u'mouseover': {u'state': {u'target': [], u'time': []}, u'edge': {u'target': [], u'time': []}}, u'click': {u'state': {u'target': [u'3', u'4', u'11', u'12', u'7', u'8'], u'time': [617, 1886, 2390, 2842, 3380, 3786]}, u'edge': {u'target': [], u'time': []}}, u'mouseout': {u'state': {u'target': [], u'time': []}, u'edge': {u'target': [], u'time': []}}}","[4, -8, 24]","[5497, 90, 490]",14.0,"[None, None, None]","[u'', -2, 4, -24, 24, -2, -4, -48, -48, 4, -8, 24, 24]",489546,27.0,8561.0,2.820201947454005e+17,mouselab-mdp,0
"[4242, 4771, 5734]","[u'right', u'right', u'up']",test,[],"[u'0', u'5', u'6', u'7']","{u'right': 0, u'up': -68, u'left': -66}","{u'mouseover': {u'state': {u'target': [], u'time': []}, u'edge': {u'target': [], u'time': []}}, u'click': {u'state': {u'target': [u'4', u'11', u'12', u'3', u'7'], u'time': [486, 1840, 2353, 2954, 3372]}, u'edge': {u'target': [], u'time': []}}, u'mouseout': {u'state': {u'target': [], u'time': []}, u'edge': {u'target': [], u'time': []}}}","[-2, 8, 48]","[4240, 18, 448]",49.0,"[None, None, None]","[u'', 2, 8, -24, -48, -2, 8, 48, 24, 4, 8, -24, -48]",499947,28.0,9368.0,7.708577571422581e+18,mouselab-mdp,0
"[2246, 2864, 3835]","[u'up', u'up', u'left']",test,[],"[u'0', u'1', u'2', u'4']","{u'right': 0, u'up': 0, u'left': -30}","{u'mouseover': {u'state': {u'target': [], u'time': []}, u'edge': {u'target': [], u'time': []}}, u'click': {u'state': {u'target': [u'3', u'4'], u'time': [697, 1410]}, u'edge': {u'target': [], u'time': []}}, u'mouseout': {u'state': {u'target': [], u'time': []}, u'edge': {u'target': [], u'time': []}}}","[4, -8, 48]","[2241, 102, 456]",42.0,"[None, None, None]","[u'', 4, -8, 24, 48, 4, -8, -24, 48, -2, -8, 24, -24]",510918,29.0,9904.0,6.60860815512509e+18,mouselab-mdp,0
"[14909, 16117, 16923]","[u'left', u'left', u'up']",training,"[0, 0, 0, 0, 0, 0, 0, 0, 0, 0, 0, 0, 0]","[u'0', u'9', u'10', u'11']","{u'right': -6, u'up': -24, u'left': 0}","{u'mouseover': {u'state': {u'target': [], u'time': []}, u'edge': {u'target': [], u'time': []}}, u'click': {u'state': {u'target': [u'9', u'1', u'5', u'8', u'6', u'7', u'3', u'4', u'2', u'10', u'11', u'12'], u'time': [2650, 3534, 4088, 4719, 5221, 5580, 6323, 7947, 8926, 10025, 10502, 11029]}, u'edge': {u'target': [], u'time': []}}, u'mouseout': {u'state': {u'target': [], u'time': []}, u'edge': {u'target': [], u'time': []}}}","[4, -4, 48]","[14898, 707, 315]",36.0,"[None, None, None]","[u'', 4, -4, -48, 24, -2, -4, 24, 48, 4, -4, 48, -48]",154257,0.0,19556.0,3.2058837162677184e+17,mouselab-mdp,1
"[14115, 14786, 15770]","[u'right', u'right', u'up']",training,"[0, 0, 0, 0, 0, 0, 0, 0, 0, 0, 0, 0, 0]","[u'0', u'5', u'6', u'7']","{u'right': 0, u'up': -26, u'left': -14}","{u'mouseover': {u'state': {u'target': [], u'time': []}, u'edge': {u'target': [], u'time': []}}, u'click': {u'state': {u'target': [u'9', u'1', u'5', u'8', u'6', u'7', u'3', u'2', u'4', u'11', u'10', u'12'], u'time': [2411, 2992, 3499, 4857, 5313, 5776, 8426, 8941, 9403, 11018, 11589, 12088]}, u'edge': {u'target': [], u'time': []}}, u'mouseout': {u'state': {u'target': [], u'time': []}, u'edge': {u'target': [], u'time': []}}}","[-2, 4, 48]","[14108, 165, 480]",38.0,"[None, None, None]","[u'', -4, 4, 24, -24, -2, 4, 48, -24, -4, -8, -48, 48]",173072,1.0,17666.0,8.588655795336371e+17,mouselab-mdp,1
"[17447, 18126, 18759]","[u'up', u'up', u'right']",training,"[0, 0, 0, 0, 0, 0, 0, 0, 0, 0, 0, 0, 0]","[u'0', u'1', u'2', u'3']","{u'right': -2, u'up': 0, u'left': -14}","{u'mouseover': {u'state': {u'target': [], u'time': []}, u'edge': {u'target': [], u'time': []}}, u'click': {u'state': {u'target': [u'9', u'1', u'5', u'4', u'2', u'3', u'11', u'10', u'12', u'7', u'6', u'8'], u'time': [2255, 3077, 3694, 5334, 5698, 6169, 8833, 10123, 10564, 11725, 12221, 12747]}, u'edge': {u'target': [], u'time': []}}, u'mouseout': {u'state': {u'target': [], u'time': []}, u'edge': {u'target': [], u'time': []}}}","[-2, 4, 24]","[17441, 178, 126]",14.0,"[None, None, None]","[u'', -2, 4, 24, -24, -4, 4, -24, 24, -4, -8, -24, 24]",195113,2.0,20951.0,-3.142242075455045e+18,mouselab-mdp,1
"[12762, 13443, 14050]","[u'left', u'left', u'up']",training,"[0, 0, 0, 0, 0, 0, 0, 0, 0, 0, 0, 0, 0]","[u'0', u'9', u'10', u'11']","{u'right': -16, u'up': -8, u'left': 0}","{u'mouseover': {u'state': {u'target': [], u'time': []}, u'edge': {u'target': [], u'time': []}}, u'click': {u'state': {u'target': [u'9', u'1', u'5', u'12', u'10', u'11', u'4', u'2', u'3', u'7', u'6', u'8'], u'time': [2332, 3215, 3734, 5224, 5647, 6066, 6961, 7359, 7723, 9153, 9551, 9891]}, u'edge': {u'target': [], u'time': []}}, u'mouseout': {u'state': {u'target': [], u'time': []}, u'edge': {u'target': [], u'time': []}}}","[2, 4, 24]","[12758, 180, 102]",18.0,"[None, None, None]","[u'', 2, -4, 24, -48, -2, -8, 24, -48, 2, 4, 24, -48]",212161,3.0,15898.0,2.6530187619064013e+18,mouselab-mdp,1
"[5710, 6333, 6909]","[u'up', u'up', u'left']",training,"[0, 0, 0, 0, 0, 0, 0]","[u'0', u'1', u'2', u'4']","{u'right': -78, u'up': 0, u'left': -38}","{u'mouseover': {u'state': {u'target': [], u'time': []}, u'edge': {u'target': [], u'time': []}}, u'click': {u'state': {u'target': [u'9', u'1', u'5', u'4', u'2', u'3'], u'time': [1526, 1921, 2407, 3493, 4571, 4836]}, u'edge': {u'target': [], u'time': []}}, u'mouseout': {u'state': {u'target': [], u'time': []}, u'edge': {u'target': [], u'time': []}}}","[4, 4, 48]","[5703, 118, 76]",50.0,"[None, None, None]","[u'', 4, 4, -48, 48, -2, 4, -48, -24, -2, -4, -48, 24]",223937,4.0,10709.0,-5.006809819184351e+18,mouselab-mdp,1
"[10290, 10920, 11600]","[u'right', u'right', u'up']",training,"[0, 0, 0, 0, 0, 0, 0, 0]","[u'0', u'5', u'6', u'7']","{u'right': -8, u'up': -22, u'left': 0}","{u'mouseover': {u'state': {u'target': [], u'time': []}, u'edge': {u'target': [], u'time': []}}, u'click': {u'state': {u'target': [u'9', u'1', u'5', u'4', u'3', u'2', u'7'], u'time': [1118, 1625, 2116, 3241, 4633, 6068, 7492]}, u'edge': {u'target': [], u'time': []}}, u'mouseout': {u'state': {u'target': [], u'time': []}, u'edge': {u'target': [], u'time': []}}}","[4, -8, 48]","[10286, 136, 182]",37.0,"[None, None, None]","[u'', 2, 4, 24, -24, 4, -8, 48, -24, -4, 8, -48, 48]",238449,5.0,13424.0,5.010381167344479e+18,mouselab-mdp,1
"[7016, 7799, 8495]","[u'up', u'up', u'right']",training,"[0, 0, 0, 0, 0, 0]","[u'0', u'1', u'2', u'3']","{u'right': -36, u'up': -2, u'left': 0}","{u'mouseover': {u'state': {u'target': [], u'time': []}, u'edge': {u'target': [], u'time': []}}, u'click': {u'state': {u'target': [u'9', u'1', u'5', u'4', u'3'], u'time': [1315, 1778, 2212, 4994, 5855]}, u'edge': {u'target': [], u'time': []}}, u'mouseout': {u'state': {u'target': [], u'time': []}, u'edge': {u'target': [], u'time': []}}}","[4, -4, 48]","[7012, 265, 199]",43.0,"[None, None, None]","[u'', 4, -4, 48, -48, -2, -8, 24, 24, -2, 4, 48, -48]",250065,6.0,10535.0,8.045829731203394e+18,mouselab-mdp,1
"[5449, 6145, 6905]","[u'left', u'left', u'down']",training,"[0, 0, 0, 0, 0, 0]","[u'0', u'9', u'10', u'12']","{u'right': 0, u'up': -72, u'left': -8}","{u'mouseover': {u'state': {u'target': [], u'time': []}, u'edge': {u'target': [], u'time': []}}, u'click': {u'state': {u'target': [u'9', u'1', u'5', u'11', u'12'], u'time': [1126, 1526, 2078, 3354, 3993]}, u'edge': {u'target': [], u'time': []}}, u'mouseout': {u'state': {u'target': [], u'time': []}, u'edge': {u'target': [], u'time': []}}}","[4, -8, 48]","[5443, 203, 259]",39.0,"[None, None, None]","[u'', -4, 8, -24, -48, -4, 8, -48, 48, 4, -8, -24, 48]",260130,7.0,8897.0,-1.4148451789680307e+18,mouselab-mdp,1
"[12086, 13269, 13877]","[u'up', u'up', u'right']",training,"[0, 0, 0, 0, 0, 0, 0, 0, 0, 0]","[u'0', u'1', u'2', u'3']","{u'right': -46, u'up': 0, u'left': -44}","{u'mouseover': {u'state': {u'target': [], u'time': []}, u'edge': {u'target': [], u'time': []}}, u'click': {u'state': {u'target': [u'9', u'1', u'4', u'3', u'5', u'8', u'7', u'11', u'12'], u'time': [1414, 1896, 2965, 3527, 6481, 7934, 9349, 10245, 10729]}, u'edge': {u'target': [], u'time': []}}, u'mouseout': {u'state': {u'target': [], u'time': []}, u'edge': {u'target': [], u'time': []}}}","[2, -4, 24]","[12080, 684, 90]",13.0,"[None, None, None]","[u'', 2, -4, 24, 24, -4, 4, -24, -24, -2, 4, -24, -48]",276986,8.0,15741.0,7.862543089384343e+18,mouselab-mdp,1
"[4058, 4778, 5410]","[u'left', u'left', u'up']",training,"[0, 0, 0, 0]","[u'0', u'9', u'10', u'11']","{u'right': 0, u'up': -32, u'left': -6}","{u'mouseover': {u'state': {u'target': [], u'time': []}, u'edge': {u'target': [], u'time': []}}, u'click': {u'state': {u'target': [u'9', u'11', u'12'], u'time': [1185, 2397, 3355]}, u'edge': {u'target': [], u'time': []}}, u'mouseout': {u'state': {u'target': [], u'time': []}, u'edge': {u'target': [], u'time': []}}}","[4, -4, 48]","[4014, 223, 138]",45.0,"[None, None, None]","[u'', 2, -4, 24, -24, -2, 8, 24, 48, 4, -4, 48, 48]",287146,9.0,9090.0,5.246743485396079e+18,mouselab-mdp,1
"[5348, 5979, 6660]","[u'left', u'left', u'up']",test,"[0, 0, 0, 0]","[u'0', u'9', u'10', u'11']","{u'right': -38, u'up': -4, u'left': 0}","{u'mouseover': {u'state': {u'target': [], u'time': []}, u'edge': {u'target': [], u'time': []}}, u'click': {u'state': {u'target': [u'1', u'9', u'11'], u'time': [1993, 2842, 3696]}, u'edge': {u'target': [], u'time': []}}, u'mouseout': {u'state': {u'target': [], u'time': []}, u'edge': {u'target': [], u'time': []}}}","[4, 4, 48]","[5339, 125, 185]",53.0,"[None, None, None]","[u'', -4, 8, 48, -24, -2, -4, 24, -48, 4, 4, 48, -48]",318954,10.0,9947.0,7.26324481058999e+18,mouselab-mdp,1
"[10965, 11508, 12068]","[u'left', u'left', u'up']",test,"[0, 0, 0, 0, 0, 0, 0, 0, 0, 0]","[u'0', u'9', u'10', u'11']","{u'right': -80, u'up': 0, u'left': -6}","{u'mouseover': {u'state': {u'target': [], u'time': []}, u'edge': {u'target': [], u'time': []}}, u'click': {u'state': {u'target': [u'1', u'5', u'9', u'11', u'12', u'4', u'3', u'7', u'8'], u'time': [1337, 1990, 2638, 3874, 4710, 7993, 8859, 9380, 9967]}, u'edge': {u'target': [], u'time': []}}, u'mouseout': {u'state': {u'target': [], u'time': []}, u'edge': {u'target': [], u'time': []}}}","[4, -8, 24]","[10927, 44, 55]",11.0,"[None, None, None]","[u'', -2, 4, -24, 24, -2, -4, -48, -48, 4, -8, 24, 24]",334922,11.0,14908.0,2.820201947454005e+17,mouselab-mdp,1
"[4490, 5114, 5714]","[u'left', u'left', u'down']",test,"[0, 0, 0, 0]","[u'0', u'9', u'10', u'12']","{u'right': -30, u'up': -18, u'left': 0}","{u'mouseover': {u'state': {u'target': [], u'time': []}, u'edge': {u'target': [], u'time': []}}, u'click': {u'state': {u'target': [u'9', u'11', u'12'], u'time': [1827, 2768, 3575]}, u'edge': {u'target': [], u'time': []}}, u'mouseout': {u'state': {u'target': [], u'time': []}, u'edge': {u'target': [], u'time': []}}}","[4, 8, 48]","[4481, 120, 103]",57.0,"[None, None, None]","[u'', -2, -4, 48, -48, 2, 4, -48, 24, 4, 8, -48, 48]",346459,12.0,10426.0,-2.817098998670331e+18,mouselab-mdp,1
"[4301, 4876, 5572]","[u'right', u'right', u'down']",test,"[0, 0, 0, 0, 0]","[u'0', u'5', u'6', u'8']","{u'right': 0, u'up': -12, u'left': -6}","{u'mouseover': {u'state': {u'target': [], u'time': []}, u'edge': {u'target': [], u'time': []}}, u'click': {u'state': {u'target': [u'9', u'1', u'5', u'8'], u'time': [704, 1850, 2351, 3203]}, u'edge': {u'target': [], u'time': []}}, u'mouseout': {u'state': {u'target': [], u'time': []}, u'edge': {u'target': [], u'time': []}}}","[2, 4, 48]","[4288, 81, 196]",50.0,"[None, None, None]","[u'', -2, -4, 48, 24, 2, 4, -48, 48, -4, 4, 48, 24]",357171,13.0,9620.0,7.946552191512982e+18,mouselab-mdp,1
"[5043, 5626, 6226]","[u'up', u'up', u'right']",test,"[0, 0, 0, 0, 0]","[u'0', u'1', u'2', u'3']","{u'right': -32, u'up': 0, u'left': -88}","{u'mouseover': {u'state': {u'target': [], u'time': []}, u'edge': {u'target': [], u'time': []}}, u'click': {u'state': {u'target': [u'5', u'1', u'4', u'3'], u'time': [1934, 2545, 3239, 3866]}, u'edge': {u'target': [], u'time': []}}, u'mouseout': {u'state': {u'target': [], u'time': []}, u'edge': {u'target': [], u'time': []}}}","[2, 8, 48]","[5036, 90, 106]",54.0,"[None, None, None]","[u'', 2, 8, 48, 24, -2, 4, 24, 24, -2, -4, -48, -24]",367571,14.0,9331.0,-8.923867603615937e+18,mouselab-mdp,1
"[9132, 9724, 10708]","[u'right', u'right', u'down']",test,"[0, 0, 0, 0, 0, 0, 0, 0, 0, 0]","[u'0', u'5', u'6', u'8']","{u'right': 0, u'up': -94, u'left': -56}","{u'mouseover': {u'state': {u'target': [], u'time': []}, u'edge': {u'target': [], u'time': []}}, u'click': {u'state': {u'target': [u'1', u'9', u'11', u'12', u'5', u'4', u'3', u'7', u'8'], u'time': [1339, 2360, 3278, 3900, 5157, 6159, 6815, 7378, 8142]}, u'edge': {u'target': [], u'time': []}}, u'mouseout': {u'state': {u'target': [], u'time': []}, u'edge': {u'target': [], u'time': []}}}","[-2, -8, 48]","[9126, 100, 484]",29.0,"[None, None, None]","[u'', -4, -4, -48, -48, -2, -8, 24, 48, 2, 4, -24, -48]",381059,15.0,12404.0,-1.84824368346445e+18,mouselab-mdp,1
"[5115, 5652, 6787]","[u'up', u'up', u'right']",test,"[0, 0, 0, 0]","[u'0', u'1', u'2', u'3']","{u'right': -18, u'up': 0, u'left': -44}","{u'mouseover': {u'state': {u'target': [], u'time': []}, u'edge': {u'target': [], u'time': []}}, u'click': {u'state': {u'target': [u'1', u'4', u'3'], u'time': [2153, 3099, 4240]}, u'edge': {u'target': [], u'time': []}}, u'mouseout': {u'state': {u'target': [], u'time': []}, u'edge': {u'target': [], u'time': []}}}","[4, 4, 48]","[5108, 35, 621]",53.0,"[None, None, None]","[u'', 4, 4, 48, -48, -2, -8, 48, -24, -4, -8, 24, -48]",391731,16.0,9603.0,-4.670080337334774e+18,mouselab-mdp,1
"[8317, 8925, 10021]","[u'up', u'up', u'right']",test,"[0, 0, 0, 0, 0, 0, 0, 0]","[u'0', u'1', u'2', u'3']","{u'right': -22, u'up': 0, u'left': -30}","{u'mouseover': {u'state': {u'target': [], u'time': []}, u'edge': {u'target': [], u'time': []}}, u'click': {u'state': {u'target': [u'1', u'5', u'9', u'11', u'12', u'4', u'3'], u'time': [1446, 2097, 2642, 3555, 4401, 6359, 7014]}, u'edge': {u'target': [], u'time': []}}, u'mouseout': {u'state': {u'target': [], u'time': []}, u'edge': {u'target': [], u'time': []}}}","[-2, 4, 48]","[8312, 109, 589]",43.0,"[None, None, None]","[u'', -2, 4, 48, 24, -4, 8, -48, 24, 4, -8, 24, 24]",404563,17.0,11749.0,-1.461775893828862e+18,mouselab-mdp,1
"[7771, 8387, 8947]","[u'up', u'up', u'right']",test,"[0, 0, 0, 0, 0, 0, 0, 0]","[u'0', u'1', u'2', u'3']","{u'right': -24, u'up': 0, u'left': -36}","{u'mouseover': {u'state': {u'target': [], u'time': []}, u'edge': {u'target': [], u'time': []}}, u'click': {u'state': {u'target': [u'9', u'1', u'5', u'11', u'12', u'4', u'3'], u'time': [953, 1886, 2625, 3813, 4498, 5385, 6415]}, u'edge': {u'target': [], u'time': []}}, u'mouseout': {u'state': {u'target': [], u'time': []}, u'edge': {u'target': [], u'time': []}}}","[-4, 4, 48]","[7764, 123, 52]",41.0,"[None, None, None]","[u'', -4, 4, 48, -48, -4, 4, -24, 24, -4, -8, 24, 24]",417075,18.0,11443.0,-5.995301136843023e+18,mouselab-mdp,1
"[8673, 9361, 10073]","[u'left', u'left', u'down']",test,"[0, 0, 0, 0, 0, 0, 0, 0, 0, 0]","[u'0', u'9', u'10', u'12']","{u'right': 0, u'up': -6, u'left': -16}","{u'mouseover': {u'state': {u'target': [], u'time': []}, u'edge': {u'target': [], u'time': []}}, u'click': {u'state': {u'target': [u'11', u'12', u'4', u'3', u'7', u'8', u'1', u'5', u'9'], u'time': [1001, 1571, 2415, 3161, 3650, 4297, 6587, 7073, 7729]}, u'edge': {u'target': [], u'time': []}}, u'mouseout': {u'state': {u'target': [], u'time': []}, u'edge': {u'target': [], u'time': []}}}","[4, -8, 24]","[8666, 197, 209]",11.0,"[None, None, None]","[u'', 2, 4, 24, -24, 4, 8, -48, 24, 4, -8, -24, 24]",429851,19.0,11705.0,8.950946188299295e+18,mouselab-mdp,1
"[3751, 4847, 5439]","[u'up', u'up', u'right']",test,"[0, 0, 0, 0, 0]","[u'0', u'1', u'2', u'3']","{u'right': -42, u'up': 0, u'left': -94}","{u'mouseover': {u'state': {u'target': [], u'time': []}, u'edge': {u'target': [], u'time': []}}, u'click': {u'state': {u'target': [u'1', u'9', u'4', u'3'], u'time': [1051, 1619, 2435, 2866]}, u'edge': {u'target': [], u'time': []}}, u'mouseout': {u'state': {u'target': [], u'time': []}, u'edge': {u'target': [], u'time': []}}}","[2, 8, 48]","[3747, 592, 101]",54.0,"[None, None, None]","[u'', 2, 8, 48, -24, -4, -4, -48, 24, -4, -8, -48, -24]",441171,20.0,10231.0,2.372710761025483e+18,mouselab-mdp,1
"[3561, 4089, 4737]","[u'up', u'up', u'right']",test,"[0, 0, 0, 0]","[u'0', u'1', u'2', u'3']","{u'right': -28, u'up': 0, u'left': -28}","{u'mouseover': {u'state': {u'target': [], u'time': []}, u'edge': {u'target': [], u'time': []}}, u'click': {u'state': {u'target': [u'1', u'4', u'3'], u'time': [1185, 2051, 2680]}, u'edge': {u'target': [], u'time': []}}, u'mouseout': {u'state': {u'target': [], u'time': []}, u'edge': {u'target': [], u'time': []}}}","[2, -4, 48]","[3554, 37, 117]",43.0,"[None, None, None]","[u'', 2, -4, 48, 24, -2, -4, 24, 24, 2, -8, -24, 24]",451691,21.0,9433.0,5.566012147915885e+17,mouselab-mdp,1
"[3406, 4782, 5422]","[u'up', u'up', u'left']",test,"[0, 0, 0, 0]","[u'0', u'1', u'2', u'4']","{u'right': 0, u'up': 0, u'left': -30}","{u'mouseover': {u'state': {u'target': [], u'time': []}, u'edge': {u'target': [], u'time': []}}, u'click': {u'state': {u'target': [u'9', u'1', u'4'], u'time': [835, 1476, 2239]}, u'edge': {u'target': [], u'time': []}}, u'mouseout': {u'state': {u'target': [], u'time': []}, u'edge': {u'target': [], u'time': []}}}","[4, -8, 48]","[3401, 867, 138]",41.0,"[None, None, None]","[u'', 4, -8, 24, 48, 4, -8, -24, 48, -2, -8, 24, -24]",462003,22.0,9254.0,6.60860815512509e+18,mouselab-mdp,1
"[3174, 3718, 4286]","[u'left', u'left', u'up']",test,"[0, 0, 0]","[u'0', u'9', u'10', u'11']","{u'right': -36, u'up': -106, u'left': 0}","{u'mouseover': {u'state': {u'target': [], u'time': []}, u'edge': {u'target': [], u'time': []}}, u'click': {u'state': {u'target': [u'9', u'11'], u'time': [1230, 2044]}, u'edge': {u'target': [], u'time': []}}, u'mouseout': {u'state': {u'target': [], u'time': []}, u'edge': {u'target': [], u'time': []}}}","[4, -4, 48]","[3162, 38, 60]",46.0,"[None, None, None]","[u'', -2, -8, -48, -48, -4, -8, 24, 24, 4, -4, 48, -24]",471811,23.0,8710.0,-3.0273172606858936e+18,mouselab-mdp,1
"[7573, 8118, 8629]","[u'left', u'left', u'up']",test,"[0, 0, 0, 0, 0, 0, 0]","[u'0', u'9', u'10', u'11']","{u'right': -82, u'up': 0, u'left': -12}","{u'mouseover': {u'state': {u'target': [], u'time': []}, u'edge': {u'target': [], u'time': []}}, u'click': {u'state': {u'target': [u'1', u'5', u'7', u'8', u'9', u'11'], u'time': [946, 1700, 2507, 3405, 5037, 6529]}, u'edge': {u'target': [], u'time': []}}, u'mouseout': {u'state': {u'target': [], u'time': []}, u'edge': {u'target': [], u'time': []}}}","[-4, -4, 48]","[7568, 47, 10]",34.0,"[None, None, None]","[u'', -4, 8, 48, 24, 2, -8, -48, -24, -4, -4, 48, -24]",483987,24.0,11061.0,3.4197695056242627e+18,mouselab-mdp,1
"[5811, 6923, 7483]","[u'left', u'left', u'up']",test,"[0, 0, 0, 0, 0]","[u'0', u'9', u'10', u'11']","{u'right': -74, u'up': -10, u'left': 0}","{u'mouseover': {u'state': {u'target': [], u'time': []}, u'edge': {u'target': [], u'time': []}}, u'click': {u'state': {u'target': [u'1', u'9', u'5', u'11'], u'time': [2478, 3079, 3797, 4698]}, u'edge': {u'target': [], u'time': []}}, u'mouseout': {u'state': {u'target': [], u'time': []}, u'edge': {u'target': [], u'time': []}}}","[4, -8, 48]","[5801, 611, 70]",40.0,"[None, None, None]","[u'', 2, 8, 24, -24, 2, -8, -24, -24, 4, -8, 48, 48]",495164,25.0,10116.0,-3.200495881349436e+18,mouselab-mdp,1
"[4724, 5836, 6420]","[u'left', u'left', u'up']",test,"[0, 0, 0]","[u'0', u'9', u'10', u'11']","{u'right': -16, u'up': -116, u'left': 0}","{u'mouseover': {u'state': {u'target': [], u'time': []}, u'edge': {u'target': [], u'time': []}}, u'click': {u'state': {u'target': [u'9', u'11'], u'time': [2832, 3591]}, u'edge': {u'target': [], u'time': []}}, u'mouseout': {u'state': {u'target': [], u'time': []}, u'edge': {u'target': [], u'time': []}}}","[4, 4, 48]","[4719, 621, 87]",54.0,"[None, None, None]","[u'', -4, -8, -48, -48, -4, -4, 48, 24, 4, 4, 48, -48]",506452,26.0,10188.0,-9.063084800167141e+18,mouselab-mdp,1
"[6853, 7453, 8125]","[u'right', u'right', u'down']",test,"[0, 0, 0, 0, 0, 0, 0]","[u'0', u'5', u'6', u'8']","{u'right': 0, u'up': -34, u'left': -28}","{u'mouseover': {u'state': {u'target': [], u'time': []}, u'edge': {u'target': [], u'time': []}}, u'click': {u'state': {u'target': [u'9', u'1', u'4', u'3', u'7', u'8'], u'time': [943, 1848, 2725, 3661, 4836, 5529]}, u'edge': {u'target': [], u'time': []}}, u'mouseout': {u'state': {u'target': [], u'time': []}, u'edge': {u'target': [], u'time': []}}}","[2, 4, 48]","[6846, 91, 163]",48.0,"[None, None, None]","[u'', 4, -8, 24, 24, 2, 4, 24, 48, -2, 4, 24, -48]",517604,27.0,10085.0,6.722698278557235e+18,mouselab-mdp,1
"[4436, 4995, 5556]","[u'up', u'up', u'left']",test,"[0, 0, 0, 0]","[u'0', u'1', u'2', u'4']","{u'right': -2, u'up': 0, u'left': -32}","{u'mouseover': {u'state': {u'target': [], u'time': []}, u'edge': {u'target': [], u'time': []}}, u'click': {u'state': {u'target': [u'11', u'12', u'4'], u'time': [1149, 2440, 3282]}, u'edge': {u'target': [], u'time': []}}, u'mouseout': {u'state': {u'target': [], u'time': []}, u'edge': {u'target': [], u'time': []}}}","[2, 4, 48]","[4432, 54, 28]",51.0,"[None, None, None]","[u'', 2, 4, -24, 48, -4, 8, -48, 48, 2, -4, 24, -24]",528092,28.0,9356.0,-8.327671364504025e+18,mouselab-mdp,1
"[5553, 6153, 6769]","[u'left', u'left', u'up']",test,"[0, 0, 0, 0, 0, 0, 0]","[u'0', u'9', u'10', u'11']","{u'right': -60, u'up': -48, u'left': 0}","{u'mouseover': {u'state': {u'target': [], u'time': []}, u'edge': {u'target': [], u'time': []}}, u'click': {u'state': {u'target': [u'4', u'3', u'7', u'8', u'12', u'11'], u'time': [588, 1298, 1915, 2641, 3490, 4211]}, u'edge': {u'target': [], u'time': []}}, u'mouseout': {u'state': {u'target': [], u'time': []}, u'edge': {u'target': [], u'time': []}}}","[-2, 8, 24]","[5546, 101, 116]",24.0,"[None, None, None]","[u'', 2, 4, -24, -48, -2, -4, -24, -24, -2, 8, 24, -24]",540756,29.0,11561.0,1.1823864361136648e+16,mouselab-mdp,1
"[12323, 15042, 17137]","[u'right', u'right', u'up']",training,[0],"[u'0', u'5', u'6', u'7']","{u'right': 0, u'up': -94, u'left': -78}","{u'mouseover': {u'state': {u'target': [], u'time': []}, u'edge': {u'target': [], u'time': []}}, u'click': {u'state': {u'target': [], u'time': []}, u'edge': {u'target': [], u'time': []}}, u'mouseout': {u'state': {u'target': [], u'time': []}, u'edge': {u'target': [], u'time': []}}}","[4, 8, 48]","[12317, 2211, 1575]",60.0,"[None, None, None]","[u'', -2, -8, -24, -24, 4, 8, 48, 24, -2, 8, -24, -48]",219033,0.0,21593.0,4.0797524101430456e+18,mouselab-mdp,2
"[4165, 5876, 7636]","[u'up', u'up', u'right']",training,[0],"[u'0', u'1', u'2', u'3']","{u'right': 0, u'up': -68, u'left': -66}","{u'mouseover': {u'state': {u'target': [], u'time': []}, u'edge': {u'target': [], u'time': []}}, u'click': {u'state': {u'target': [], u'time': []}, u'edge': {u'target': [], u'time': []}}, u'mouseout': {u'state': {u'target': [], u'time': []}, u'edge': {u'target': [], u'time': []}}}","[2, 8, -24]","[4159, 1212, 1255]",-14.0,"[None, None, None]","[u'', 2, 8, -24, -48, -2, 8, 48, 24, 4, 8, -24, -48]",230657,1.0,10452.0,7.708577571422581e+18,mouselab-mdp,2
"[4011, 5779, 7427]","[u'left', u'left', u'down']",training,[0],"[u'0', u'9', u'10', u'12']","{u'right': 0, u'up': -94, u'left': -56}","{u'mouseover': {u'state': {u'target': [], u'time': []}, u'edge': {u'target': [], u'time': []}}, u'click': {u'state': {u'target': [], u'time': []}, u'edge': {u'target': [], u'time': []}}, u'mouseout': {u'state': {u'target': [], u'time': []}, u'edge': {u'target': [], u'time': []}}}","[2, 4, -48]","[4007, 1272, 1136]",-42.0,"[None, None, None]","[u'', -4, -4, -48, -48, -2, -8, 24, 48, 2, 4, -24, -48]",242377,2.0,10651.0,-1.84824368346445e+18,mouselab-mdp,2
"[5187, 6746, 9074]","[u'right', u'right', u'up']",training,[0],"[u'0', u'5', u'6', u'7']","{u'right': 0, u'up': -4, u'left': -80}","{u'mouseover': {u'state': {u'target': [], u'time': []}, u'edge': {u'target': [], u'time': []}}, u'click': {u'state': {u'target': [], u'time': []}, u'edge': {u'target': [], u'time': []}}, u'mouseout': {u'state': {u'target': [], u'time': []}, u'edge': {u'target': [], u'time': []}}}","[2, -4, 48]","[5178, 1057, 1799]",46.0,"[None, None, None]","[u'', -2, -4, 48, -24, 2, -4, 48, 24, -2, -8, -24, -24]",254938,3.0,11427.0,2.593864447454748e+18,mouselab-mdp,2
"[1306, 3107, 4290]","[u'up', u'up', u'left']",training,[0],"[u'0', u'1', u'2', u'4']","{u'right': -12, u'up': -64, u'left': 0}","{u'mouseover': {u'state': {u'target': [], u'time': []}, u'edge': {u'target': [], u'time': []}}, u'click': {u'state': {u'target': [], u'time': []}, u'edge': {u'target': [], u'time': []}}, u'mouseout': {u'state': {u'target': [], u'time': []}, u'edge': {u'target': [], u'time': []}}}","[-2, 4, -24]","[1302, 1291, 674]",-22.0,"[None, None, None]","[u'', -2, 4, -48, -24, 2, 4, 24, 24, -2, -4, 48, -24]",264522,4.0,8522.0,7.457324294976434e+18,mouselab-mdp,2
"[1220, 9299, 21835]","[u'left', u'left', u'down']",training,[0],"[u'0', u'9', u'10', u'12']","{u'right': -92, u'up': -66, u'left': 0}","{u'mouseover': {u'state': {u'target': [], u'time': []}, u'edge': {u'target': [], u'time': []}}, u'click': {u'state': {u'target': [], u'time': []}, u'edge': {u'target': [], u'time': []}}, u'mouseout': {u'state': {u'target': [], u'time': []}, u'edge': {u'target': [], u'time': []}}}","[-4, -4, 48]","[1212, 7571, 12023]",40.0,"[None, None, None]","[u'', 2, -4, -24, -24, 4, -8, -48, -48, -4, -4, 48, 48]",289129,5.0,23474.0,-7.913607226466677e+18,mouselab-mdp,2
"[10396, 12124, 15557]","[u'left', u'left', u'down']",training,"[0, 0, 0]","[u'0', u'9', u'10', u'12']","{u'right': 0, u'up': -42, u'left': -30}","{u'mouseover': {u'state': {u'target': [], u'time': []}, u'edge': {u'target': [], u'time': []}}, u'click': {u'state': {u'target': [u'1', u'5'], u'time': [5061, 7350]}, u'edge': {u'target': [], u'time': []}}, u'mouseout': {u'state': {u'target': [], u'time': []}, u'edge': {u'target': [], u'time': []}}}","[4, -4, -48]","[10390, 1230, 2914]",-50.0,"[None, None, None]","[u'', -4, -8, 24, -24, -2, 8, 24, 48, 4, -4, 24, -48]",307641,6.0,17436.0,-1.1004490307225742e+18,mouselab-mdp,2
"[10313, 12256, 14425]","[u'left', u'left', u'up']",training,"[0, 0, 0]","[u'0', u'9', u'10', u'11']","{u'right': -38, u'up': -4, u'left': 0}","{u'mouseover': {u'state': {u'target': [], u'time': []}, u'edge': {u'target': [], u'time': []}}, u'click': {u'state': {u'target': [u'1', u'5'], u'time': [7260, 8570]}, u'edge': {u'target': [], u'time': []}}, u'mouseout': {u'state': {u'target': [], u'time': []}, u'edge': {u'target': [], u'time': []}}}","[4, 4, 48]","[10273, 1446, 1647]",54.0,"[None, None, None]","[u'', -4, 8, 48, -24, -2, -4, 24, -48, 4, 4, 48, -48]",325185,7.0,16448.0,7.26324481058999e+18,mouselab-mdp,2
"[4815, 6847, 8823]","[u'left', u'left', u'up']",training,"[0, 0, 0]","[u'0', u'9', u'10', u'11']","{u'right': -22, u'up': 0, u'left': -30}","{u'mouseover': {u'state': {u'target': [], u'time': []}, u'edge': {u'target': [], u'time': []}}, u'click': {u'state': {u'target': [u'1', u'5'], u'time': [1970, 3066]}, u'edge': {u'target': [], u'time': []}}, u'mouseout': {u'state': {u'target': [], u'time': []}, u'edge': {u'target': [], u'time': []}}}","[4, -8, 24]","[4810, 1533, 1459]",18.0,"[None, None, None]","[u'', -2, 4, 48, 24, -4, 8, -48, 24, 4, -8, 24, 24]",337121,8.0,10871.0,-1.461775893828862e+18,mouselab-mdp,2
"[4494, 5894, 7278]","[u'right', u'right', u'down']",training,"[0, 0, 0]","[u'0', u'5', u'6', u'8']","{u'right': 0, u'up': -6, u'left': -64}","{u'mouseover': {u'state': {u'target': [], u'time': []}, u'edge': {u'target': [], u'time': []}}, u'click': {u'state': {u'target': [u'9', u'1'], u'time': [2235, 3060]}, u'edge': {u'target': [], u'time': []}}, u'mouseout': {u'state': {u'target': [], u'time': []}, u'edge': {u'target': [], u'time': []}}}","[2, -4, -48]","[4486, 890, 875]",-52.0,"[None, None, None]","[u'', -4, -4, -24, 24, 2, -4, 24, -48, -2, 8, -48, -48]",348521,9.0,10262.0,-1.3896256955715197e+18,mouselab-mdp,2
"[11857, 12888, 14561]","[u'left', u'left', u'up']",test,"[0, 0, 0, 0]","[u'0', u'9', u'10', u'11']","{u'right': -90, u'up': -18, u'left': 0}","{u'mouseover': {u'state': {u'target': [], u'time': []}, u'edge': {u'target': [], u'time': []}}, u'click': {u'state': {u'target': [u'1', u'9', u'5'], u'time': [5481, 7031, 9643]}, u'edge': {u'target': [], u'time': []}}, u'mouseout': {u'state': {u'target': [], u'time': []}, u'edge': {u'target': [], u'time': []}}}","[4, 8, 24]","[11852, 530, 1152]",33.0,"[None, None, None]","[u'', 2, -8, -24, 48, -2, -4, -24, -24, 4, 8, 24, 48]",470009,10.0,16024.0,6.51676073778936e+18,mouselab-mdp,2
"[6437, 7317, 8781]","[u'left', u'left', u'down']",test,"[0, 0, 0, 0]","[u'0', u'9', u'10', u'12']","{u'right': -74, u'up': -10, u'left': 0}","{u'mouseover': {u'state': {u'target': [], u'time': []}, u'edge': {u'target': [], u'time': []}}, u'click': {u'state': {u'target': [u'9', u'1', u'5'], u'time': [2730, 3945, 4951]}, u'edge': {u'target': [], u'time': []}}, u'mouseout': {u'state': {u'target': [], u'time': []}, u'edge': {u'target': [], u'time': []}}}","[4, -8, 48]","[6430, 382, 945]",41.0,"[None, None, None]","[u'', 2, 8, 24, -24, 2, -8, -24, -24, 4, -8, 48, 48]",481313,11.0,10173.0,-3.200495881349436e+18,mouselab-mdp,2
"[4034, 4954, 6922]","[u'up', u'up', u'left']",test,"[0, 0, 0, 0]","[u'0', u'1', u'2', u'4']","{u'right': 0, u'up': -14, u'left': -8}","{u'mouseover': {u'state': {u'target': [], u'time': []}, u'edge': {u'target': [], u'time': []}}, u'click': {u'state': {u'target': [u'9', u'1', u'5'], u'time': [1292, 2072, 2898]}, u'edge': {u'target': [], u'time': []}}, u'mouseout': {u'state': {u'target': [], u'time': []}, u'edge': {u'target': [], u'time': []}}}","[4, 8, 24]","[4030, 404, 1456]",33.0,"[None, None, None]","[u'', 4, 8, -24, 24, -2, 4, -24, 48, 2, -8, 24, 48]",493449,12.0,11074.0,8.866052500453722e+18,mouselab-mdp,2
"[4464, 6239, 7479]","[u'up', u'up', u'right']",test,"[0, 0, 0, 0]","[u'0', u'1', u'2', u'3']","{u'right': 0, u'up': -48, u'left': -66}","{u'mouseover': {u'state': {u'target': [], u'time': []}, u'edge': {u'target': [], u'time': []}}, u'click': {u'state': {u'target': [u'9', u'1', u'5'], u'time': [1546, 2293, 3082]}, u'edge': {u'target': [], u'time': []}}, u'mouseout': {u'state': {u'target': [], u'time': []}, u'edge': {u'target': [], u'time': []}}}","[4, 8, -24]","[4441, 1268, 741]",-15.0,"[None, None, None]","[u'', 4, 8, -24, -24, -4, -8, -48, 48, 2, -8, -24, -48]",504266,13.0,9679.0,2.63044322053822e+18,mouselab-mdp,2
"[4336, 7736, 9024]","[u'right', u'right', u'up']",test,"[0, 0, 0]","[u'0', u'5', u'6', u'7']","{u'right': -24, u'up': 0, u'left': -36}","{u'mouseover': {u'state': {u'target': [], u'time': []}, u'edge': {u'target': [], u'time': []}}, u'click': {u'state': {u'target': [u'9', u'1'], u'time': [1147, 2729]}, u'edge': {u'target': [], u'time': []}}, u'mouseout': {u'state': {u'target': [], u'time': []}, u'edge': {u'target': [], u'time': []}}}","[-4, 4, -24]","[4332, 2891, 763]",-26.0,"[None, None, None]","[u'', -4, 4, 48, -48, -4, 4, -24, 24, -4, -8, 24, 24]",516834,14.0,11504.0,-5.995301136843023e+18,mouselab-mdp,2
"[4687, 5903, 6831]","[u'right', u'right', u'down']",test,"[0, 0, 0]","[u'0', u'5', u'6', u'8']","{u'right': -14, u'up': -24, u'left': 0}","{u'mouseover': {u'state': {u'target': [], u'time': []}, u'edge': {u'target': [], u'time': []}}, u'click': {u'state': {u'target': [u'1', u'9'], u'time': [1791, 3052]}, u'edge': {u'target': [], u'time': []}}, u'mouseout': {u'state': {u'target': [], u'time': []}, u'edge': {u'target': [], u'time': []}}}","[2, 8, 24]","[4683, 720, 431]",32.0,"[None, None, None]","[u'', -4, 4, 24, 24, 2, 8, -24, 24, -4, 4, -24, 48]",530506,15.0,12599.0,5.347440239323845e+18,mouselab-mdp,2
"[5528, 6335, 7399]","[u'up', u'up', u'right']",test,"[0, 0, 0, 0]","[u'0', u'1', u'2', u'3']","{u'right': -2, u'up': 0, u'left': -32}","{u'mouseover': {u'state': {u'target': [], u'time': []}, u'edge': {u'target': [], u'time': []}}, u'click': {u'state': {u'target': [u'9', u'1', u'5'], u'time': [1346, 2273, 3632]}, u'edge': {u'target': [], u'time': []}}, u'mouseout': {u'state': {u'target': [], u'time': []}, u'edge': {u'target': [], u'time': []}}}","[2, 4, -24]","[5523, 298, 563]",-21.0,"[None, None, None]","[u'', 2, 4, -24, 48, -4, 8, -48, 48, 2, -4, 24, -24]",540481,16.0,8911.0,-8.327671364504025e+18,mouselab-mdp,2
"[4449, 5296, 6544]","[u'left', u'left', u'up']",test,"[0, 0, 0]","[u'0', u'9', u'10', u'11']","{u'right': 0, u'up': -72, u'left': -8}","{u'mouseover': {u'state': {u'target': [], u'time': []}, u'edge': {u'target': [], u'time': []}}, u'click': {u'state': {u'target': [u'9', u'1'], u'time': [2011, 2782]}, u'edge': {u'target': [], u'time': []}}, u'mouseout': {u'state': {u'target': [], u'time': []}, u'edge': {u'target': [], u'time': []}}}","[4, -8, -24]","[4443, 344, 723]",-30.0,"[None, None, None]","[u'', -4, 8, -24, -48, -4, 8, -48, 48, 4, -8, -24, 48]",550514,17.0,8961.0,-1.4148451789680307e+18,mouselab-mdp,2
"[3512, 4865, 5785]","[u'right', u'right', u'down']",test,"[0, 0, 0]","[u'0', u'5', u'6', u'8']","{u'right': -10, u'up': -28, u'left': 0}","{u'mouseover': {u'state': {u'target': [], u'time': []}, u'edge': {u'target': [], u'time': []}}, u'click': {u'state': {u'target': [u'1', u'9'], u'time': [1260, 2020]}, u'edge': {u'target': [], u'time': []}}, u'mouseout': {u'state': {u'target': [], u'time': []}, u'edge': {u'target': [], u'time': []}}}","[-2, -4, -24]","[3508, 852, 422]",-32.0,"[None, None, None]","[u'', -4, 4, 24, 24, -2, -4, 48, -24, -4, 8, -48, 48]",567970,18.0,16393.0,-4.87466613580449e+18,mouselab-mdp,2
"[11044, 11900, 12860]","[u'up', u'up', u'left']",test,"[0, 0, 0, 0]","[u'0', u'1', u'2', u'4']","{u'right': -60, u'up': -48, u'left': 0}","{u'mouseover': {u'state': {u'target': [], u'time': []}, u'edge': {u'target': [], u'time': []}}, u'click': {u'state': {u'target': [u'1', u'9', u'5'], u'time': [4213, 7898, 9667]}, u'edge': {u'target': [], u'time': []}}, u'mouseout': {u'state': {u'target': [], u'time': []}, u'edge': {u'target': [], u'time': []}}}","[2, 4, -48]","[11040, 345, 455]",-45.0,"[None, None, None]","[u'', 2, 4, -24, -48, -2, -4, -24, -24, -2, 8, 24, -24]",584817,19.0,15700.0,1.1823864361136648e+16,mouselab-mdp,2
"[5057, 5889, 7057]","[u'up', u'up', u'right']",test,"[0, 0, 0]","[u'0', u'1', u'2', u'3']","{u'right': -36, u'up': -2, u'left': 0}","{u'mouseover': {u'state': {u'target': [], u'time': []}, u'edge': {u'target': [], u'time': []}}, u'click': {u'state': {u'target': [u'9', u'1'], u'time': [2289, 3363]}, u'edge': {u'target': [], u'time': []}}, u'mouseout': {u'state': {u'target': [], u'time': []}, u'edge': {u'target': [], u'time': []}}}","[4, -4, 48]","[5053, 323, 641]",46.0,"[None, None, None]","[u'', 4, -4, 48, -48, -2, -8, 24, 24, -2, 4, 48, -48]",594305,20.0,8417.0,8.045829731203394e+18,mouselab-mdp,2
"[3236, 3980, 5172]","[u'left', u'left', u'up']",test,"[0, 0]","[u'0', u'9', u'10', u'11']","{u'right': -30, u'up': -18, u'left': 0}","{u'mouseover': {u'state': {u'target': [], u'time': []}, u'edge': {u'target': [], u'time': []}}, u'click': {u'state': {u'target': [u'9'], u'time': [1260]}, u'edge': {u'target': [], u'time': []}}, u'mouseout': {u'state': {u'target': [], u'time': []}, u'edge': {u'target': [], u'time': []}}}","[4, 8, -48]","[3231, 248, 674]",-37.0,"[None, None, None]","[u'', -2, -4, 48, -48, 2, 4, -48, 24, 4, 8, -48, 48]",603137,21.0,7731.0,-2.817098998670331e+18,mouselab-mdp,2
"[4755, 5539, 6554]","[u'up', u'up', u'right']",test,"[0, 0, 0]","[u'0', u'1', u'2', u'3']","{u'right': -32, u'up': 0, u'left': -88}","{u'mouseover': {u'state': {u'target': [], u'time': []}, u'edge': {u'target': [], u'time': []}}, u'click': {u'state': {u'target': [u'9', u'1'], u'time': [1759, 2428]}, u'edge': {u'target': [], u'time': []}}, u'mouseout': {u'state': {u'target': [], u'time': []}, u'edge': {u'target': [], u'time': []}}}","[2, 8, 48]","[4750, 285, 515]",56.0,"[None, None, None]","[u'', 2, 8, 48, 24, -2, 4, 24, 24, -2, -4, -48, -24]",616136,22.0,11938.0,-8.923867603615937e+18,mouselab-mdp,2
"[3467, 4938, 5866]","[u'right', u'right', u'up']",test,"[0, 0, 0]","[u'0', u'5', u'6', u'7']","{u'right': -8, u'up': -8, u'left': 0}","{u'mouseover': {u'state': {u'target': [], u'time': []}, u'edge': {u'target': [], u'time': []}}, u'click': {u'state': {u'target': [u'1', u'9'], u'time': [1256, 2138]}, u'edge': {u'target': [], u'time': []}}, u'mouseout': {u'state': {u'target': [], u'time': []}, u'edge': {u'target': [], u'time': []}}}","[2, 4, -24]","[3463, 973, 433]",-20.0,"[None, None, None]","[u'', -2, 8, 24, -48, 2, 4, -24, 24, -2, -8, 48, -24]",626458,23.0,9170.0,6.282558609452272e+18,mouselab-mdp,2
"[5017, 6081, 7497]","[u'left', u'left', u'down']",test,"[0, 0, 0]","[u'0', u'9', u'10', u'12']","{u'right': -36, u'up': -106, u'left': 0}","{u'mouseover': {u'state': {u'target': [], u'time': []}, u'edge': {u'target': [], u'time': []}}, u'click': {u'state': {u'target': [u'5', u'1'], u'time': [1811, 2847]}, u'edge': {u'target': [], u'time': []}}, u'mouseout': {u'state': {u'target': [], u'time': []}, u'edge': {u'target': [], u'time': []}}}","[4, -4, -24]","[5013, 565, 897]",-26.0,"[None, None, None]","[u'', -2, -8, -48, -48, -4, -8, 24, 24, 4, -4, 48, -24]",636394,24.0,8857.0,-3.0273172606858936e+18,mouselab-mdp,2
"[6113, 6865, 7825]","[u'up', u'up', u'right']",test,"[0, 0, 0, 0]","[u'0', u'1', u'2', u'3']","{u'right': -46, u'up': 0, u'left': -44}","{u'mouseover': {u'state': {u'target': [], u'time': []}, u'edge': {u'target': [], u'time': []}}, u'click': {u'state': {u'target': [u'1', u'9', u'5'], u'time': [1509, 2381, 4650]}, u'edge': {u'target': [], u'time': []}}, u'mouseout': {u'state': {u'target': [], u'time': []}, u'edge': {u'target': [], u'time': []}}}","[2, -4, 24]","[6104, 240, 434]",19.0,"[None, None, None]","[u'', 2, -4, 24, 24, -4, 4, -24, -24, -2, 4, -24, -48]",646729,25.0,9216.0,7.862543089384343e+18,mouselab-mdp,2
"[2541, 3260, 5292]","[u'left', u'left', u'up']",test,"[0, 0]","[u'0', u'9', u'10', u'11']","{u'right': 0, u'up': -32, u'left': -6}","{u'mouseover': {u'state': {u'target': [], u'time': []}, u'edge': {u'target': [], u'time': []}}, u'click': {u'state': {u'target': [u'9'], u'time': [1364]}, u'edge': {u'target': [], u'time': []}}, u'mouseout': {u'state': {u'target': [], u'time': []}, u'edge': {u'target': [], u'time': []}}}","[4, -4, 48]","[2535, 214, 1512]",47.0,"[None, None, None]","[u'', 2, -4, 24, -24, -2, 8, 24, 48, 4, -4, 48, 48]",657089,26.0,9300.0,5.246743485396079e+18,mouselab-mdp,2
"[3475, 4219, 5347]","[u'right', u'right', u'up']",test,"[0, 0]","[u'0', u'5', u'6', u'7']","{u'right': 0, u'up': -6, u'left': -16}","{u'mouseover': {u'state': {u'target': [], u'time': []}, u'edge': {u'target': [], u'time': []}}, u'click': {u'state': {u'target': [u'5'], u'time': [2250]}, u'edge': {u'target': [], u'time': []}}, u'mouseout': {u'state': {u'target': [], u'time': []}, u'edge': {u'target': [], u'time': []}}}","[4, 8, -48]","[3471, 241, 603]",-37.0,"[None, None, None]","[u'', 2, 4, 24, -24, 4, 8, -48, 24, 4, -8, -24, 24]",665762,27.0,7603.0,8.950946188299295e+18,mouselab-mdp,2
"[4840, 6256, 7808]","[u'right', u'right', u'down']",test,"[0, 0, 0]","[u'0', u'5', u'6', u'8']","{u'right': 0, u'up': -22, u'left': -34}","{u'mouseover': {u'state': {u'target': [], u'time': []}, u'edge': {u'target': [], u'time': []}}, u'click': {u'state': {u'target': [u'9', u'1'], u'time': [2418, 3354]}, u'edge': {u'target': [], u'time': []}}, u'mouseout': {u'state': {u'target': [], u'time': []}, u'edge': {u'target': [], u'time': []}}}","[-4, 8, 24]","[4836, 921, 1039]",26.0,"[None, None, None]","[u'', -2, 8, -24, 24, -4, 8, 48, 24, -2, -4, 24, -48]",675913,28.0,9080.0,2.56147591952608e+18,mouselab-mdp,2
"[3210, 5146, 6522]","[u'right', u'right', u'up']",test,"[0, 0]","[u'0', u'5', u'6', u'7']","{u'right': -18, u'up': -102, u'left': 0}","{u'mouseover': {u'state': {u'target': [], u'time': []}, u'edge': {u'target': [], u'time': []}}, u'click': {u'state': {u'target': [u'5'], u'time': [1964]}, u'edge': {u'target': [], u'time': []}}, u'mouseout': {u'state': {u'target': [], u'time': []}, u'edge': {u'target': [], u'time': []}}}","[4, 8, 24]","[3204, 1433, 876]",35.0,"[None, None, None]","[u'', 4, -4, -48, -48, 4, 8, 24, -24, -2, 8, 48, -48]",686370,29.0,9314.0,-6.978553059181346e+18,mouselab-mdp,2
"[10616, 16215, 17283]","[u'left', u'left', u'up']",training,[],"[u'0', u'9', u'10', u'11']","{u'right': -74, u'up': -10, u'left': 0}","{u'mouseover': {u'state': {u'target': [], u'time': []}, u'edge': {u'target': [], u'time': []}}, u'click': {u'state': {u'target': [u'5', u'1', u'9'], u'time': [1954, 4092, 4790]}, u'edge': {u'target': [], u'time': []}}, u'mouseout': {u'state': {u'target': [], u'time': []}, u'edge': {u'target': [], u'time': []}}}","[4, -8, 48]","[10610, 5074, 537]",41.0,"[None, None, None]","[u'', 2, 8, 24, -24, 2, -8, -24, -24, 4, -8, 48, 48]",77118,0.0,19425.0,-3.200495881349436e+18,mouselab-mdp,3
"[8148, 9117, 10340]","[u'right', u'right', u'up']",training,[],"[u'0', u'5', u'6', u'7']","{u'right': 0, u'up': -6, u'left': -64}","{u'mouseover': {u'state': {u'target': [], u'time': []}, u'edge': {u'target': [], u'time': []}}, u'click': {u'state': {u'target': [u'1', u'5', u'9'], u'time': [3868, 4679, 5284]}, u'edge': {u'target': [], u'time': []}}, u'mouseout': {u'state': {u'target': [], u'time': []}, u'edge': {u'target': [], u'time': []}}}","[2, -4, 24]","[8143, 451, 706]",19.0,"[None, None, None]","[u'', -4, -4, -24, 24, 2, -4, 24, -48, -2, 8, -48, -48]",91454,1.0,13207.0,-1.3896256955715197e+18,mouselab-mdp,3
"[4912, 54105, 55975]","[u'left', u'left', u'down']",training,[],"[u'0', u'9', u'10', u'12']","{u'right': -46, u'up': 0, u'left': -44}","{u'mouseover': {u'state': {u'target': [], u'time': []}, u'edge': {u'target': [], u'time': []}}, u'click': {u'state': {u'target': [u'1', u'9', u'5'], u'time': [1445, 2063, 2614]}, u'edge': {u'target': [], u'time': []}}, u'mouseout': {u'state': {u'target': [], u'time': []}, u'edge': {u'target': [], u'time': []}}}","[-2, 4, -48]","[4907, 2686, 1341]",-49.0,"[None, None, None]","[u'', 2, -4, 24, 24, -4, 4, -24, -24, -2, 4, -24, -48]",150375,2.0,57795.0,7.862543089384343e+18,mouselab-mdp,3
"[5242, 6261, 7345]","[u'up', u'up', u'left']",training,[],"[u'0', u'1', u'2', u'4']","{u'right': -56, u'up': 0, u'left': -20}","{u'mouseover': {u'state': {u'target': [], u'time': []}, u'edge': {u'target': [], u'time': []}}, u'click': {u'state': {u'target': [u'1', u'5', u'9'], u'time': [2688, 3412, 4117]}, u'edge': {u'target': [], u'time': []}}, u'mouseout': {u'state': {u'target': [], u'time': []}, u'edge': {u'target': [], u'time': []}}}","[-2, -8, 48]","[5239, 497, 561]",35.0,"[None, None, None]","[u'', -2, -8, 24, 48, -2, 8, -24, -24, -2, -4, 24, -24]",160284,3.0,8816.0,-3.603402282008602e+18,mouselab-mdp,3
"[1102, 2077, 3002]","[u'up', u'up', u'right']",training,[],"[u'0', u'1', u'2', u'3']","{u'right': -78, u'up': 0, u'left': -38}","{u'mouseover': {u'state': {u'target': [], u'time': []}, u'edge': {u'target': [], u'time': []}}, u'click': {u'state': {u'target': [], u'time': []}, u'edge': {u'target': [], u'time': []}}, u'mouseout': {u'state': {u'target': [], u'time': []}, u'edge': {u'target': [], u'time': []}}}","[4, 4, -48]","[1098, 468, 410]",-40.0,"[None, None, None]","[u'', 4, 4, -48, 48, -2, 4, -48, -24, -2, -4, -48, 24]",169336,4.0,7975.0,-5.006809819184351e+18,mouselab-mdp,3
"[870, 2342, 6186]","[u'left', u'left', u'down']",training,[],"[u'0', u'9', u'10', u'12']","{u'right': -30, u'up': -18, u'left': 0}","{u'mouseover': {u'state': {u'target': [], u'time': []}, u'edge': {u'target': [], u'time': []}}, u'click': {u'state': {u'target': [], u'time': []}, u'edge': {u'target': [], u'time': []}}, u'mouseout': {u'state': {u'target': [], u'time': []}, u'edge': {u'target': [], u'time': []}}}","[4, 8, 48]","[865, 959, 3335]",60.0,"[None, None, None]","[u'', -2, -4, 48, -48, 2, 4, -48, 24, 4, 8, -48, 48]",179721,5.0,9309.0,-2.817098998670331e+18,mouselab-mdp,3
"[4838, 5899, 6998]","[u'left', u'left', u'up']",training,[],"[u'0', u'9', u'10', u'11']","{u'right': -38, u'up': -38, u'left': 0}","{u'mouseover': {u'state': {u'target': [], u'time': []}, u'edge': {u'target': [], u'time': []}}, u'click': {u'state': {u'target': [u'1', u'5', u'9'], u'time': [2685, 3310, 3803]}, u'edge': {u'target': [], u'time': []}}, u'mouseout': {u'state': {u'target': [], u'time': []}, u'edge': {u'target': [], u'time': []}}}","[4, -4, 24]","[4835, 541, 589]",21.0,"[None, None, None]","[u'', 2, 8, -48, -24, 2, 8, -24, -48, 4, -4, 24, -48]",190770,6.0,9984.0,4.953541845127005e+17,mouselab-mdp,3
"[3388, 29370, 30378]","[u'up', u'up', u'left']",training,[],"[u'0', u'1', u'2', u'4']","{u'right': -62, u'up': -20, u'left': 0}","{u'mouseover': {u'state': {u'target': [], u'time': []}, u'edge': {u'target': [], u'time': []}}, u'click': {u'state': {u'target': [u'5', u'1', u'9'], u'time': [1291, 2019, 2492]}, u'edge': {u'target': [], u'time': []}}, u'mouseout': {u'state': {u'target': [], u'time': []}, u'edge': {u'target': [], u'time': []}}}","[4, -4, 24]","[3385, 3460, 497]",21.0,"[None, None, None]","[u'', 4, -4, -24, 24, 2, 4, -24, -48, 4, -8, 48, -48]",223627,7.0,31776.0,4.251687641687985e+18,mouselab-mdp,3
"[5400, 6235, 7341]","[u'up', u'up', u'left']",training,[],"[u'0', u'1', u'2', u'4']","{u'right': -42, u'up': 0, u'left': -94}","{u'mouseover': {u'state': {u'target': [], u'time': []}, u'edge': {u'target': [], u'time': []}}, u'click': {u'state': {u'target': [u'5', u'1', u'9'], u'time': [3351, 3983, 4440]}, u'edge': {u'target': [], u'time': []}}, u'mouseout': {u'state': {u'target': [], u'time': []}, u'edge': {u'target': [], u'time': []}}}","[2, 8, -24]","[5397, 318, 589]",-17.0,"[None, None, None]","[u'', 2, 8, 48, -24, -4, -4, -48, 24, -4, -8, -48, -24]",233824,8.0,9132.0,2.372710761025483e+18,mouselab-mdp,3
"[4577, 35801, 37540]","[u'left', u'left', u'down']",training,[],"[u'0', u'9', u'10', u'12']","{u'right': -28, u'up': 0, u'left': -28}","{u'mouseover': {u'state': {u'target': [], u'time': []}, u'edge': {u'target': [], u'time': []}}, u'click': {u'state': {u'target': [u'1', u'9', u'5'], u'time': [1988, 2658, 3611]}, u'edge': {u'target': [], u'time': []}}, u'mouseout': {u'state': {u'target': [], u'time': []}, u'edge': {u'target': [], u'time': []}}}","[2, -8, 24]","[4572, 703, 1224]",15.0,"[None, None, None]","[u'', 2, -4, 48, 24, -2, -4, 24, 24, 2, -8, -24, 24]",281531,9.0,46642.0,5.566012147915885e+17,mouselab-mdp,3
"[4103, 5168, 6265]","[u'right', u'right', u'up']",test,[],"[u'0', u'5', u'6', u'7']","{u'right': -82, u'up': 0, u'left': -12}","{u'mouseover': {u'state': {u'target': [], u'time': []}, u'edge': {u'target': [], u'time': []}}, u'click': {u'state': {u'target': [u'1', u'9', u'5'], u'time': [1942, 2529, 3213]}, u'edge': {u'target': [], u'time': []}}, u'mouseout': {u'state': {u'target': [], u'time': []}, u'edge': {u'target': [], u'time': []}}}","[2, -8, -48]","[4098, 552, 580]",-57.0,"[None, None, None]","[u'', -4, 8, 48, 24, 2, -8, -48, -24, -4, -4, 48, -24]",331829,10.0,8283.0,3.4197695056242627e+18,mouselab-mdp,3
"[1262, 2241, 3108]","[u'up', u'up', u'left']",test,[],"[u'0', u'1', u'2', u'4']","{u'right': 0, u'up': -94, u'left': -56}","{u'mouseover': {u'state': {u'target': [], u'time': []}, u'edge': {u'target': [], u'time': []}}, u'click': {u'state': {u'target': [], u'time': []}, u'edge': {u'target': [], u'time': []}}, u'mouseout': {u'state': {u'target': [], u'time': []}, u'edge': {u'target': [], u'time': []}}}","[-4, -4, -48]","[1258, 453, 358]",-56.0,"[None, None, None]","[u'', -4, -4, -48, -48, -2, -8, 24, 48, 2, 4, -24, -48]",340458,11.0,7521.0,-1.84824368346445e+18,mouselab-mdp,3
"[2911, 3743, 4686]","[u'left', u'left', u'down']",test,[],"[u'0', u'9', u'10', u'12']","{u'right': 0, u'up': -6, u'left': -16}","{u'mouseover': {u'state': {u'target': [], u'time': []}, u'edge': {u'target': [], u'time': []}}, u'click': {u'state': {u'target': [u'9', u'1', u'5'], u'time': [632, 1149, 1881]}, u'edge': {u'target': [], u'time': []}}, u'mouseout': {u'state': {u'target': [], u'time': []}, u'edge': {u'target': [], u'time': []}}}","[4, -8, 24]","[2905, 308, 411]",17.0,"[None, None, None]","[u'', 2, 4, 24, -24, 4, 8, -48, 24, 4, -8, -24, 24]",351979,12.0,10449.0,8.950946188299295e+18,mouselab-mdp,3
"[2890, 3757, 4947]","[u'up', u'up', u'left']",test,[],"[u'0', u'1', u'2', u'4']","{u'right': -36, u'up': -2, u'left': 0}","{u'mouseover': {u'state': {u'target': [], u'time': []}, u'edge': {u'target': [], u'time': []}}, u'click': {u'state': {u'target': [u'9', u'1', u'5'], u'time': [897, 1285, 1717]}, u'edge': {u'target': [], u'time': []}}, u'mouseout': {u'state': {u'target': [], u'time': []}, u'edge': {u'target': [], u'time': []}}}","[4, -4, -48]","[2885, 345, 667]",-51.0,"[None, None, None]","[u'', 4, -4, 48, -48, -2, -8, 24, 24, -2, 4, 48, -48]",363571,13.0,10502.0,8.045829731203394e+18,mouselab-mdp,3
"[2601, 3407, 4256]","[u'left', u'left', u'up']",test,[],"[u'0', u'9', u'10', u'11']","{u'right': -36, u'up': -106, u'left': 0}","{u'mouseover': {u'state': {u'target': [], u'time': []}, u'edge': {u'target': [], u'time': []}}, u'click': {u'state': {u'target': [u'5', u'1', u'9'], u'time': [871, 1293, 1748]}, u'edge': {u'target': [], u'time': []}}, u'mouseout': {u'state': {u'target': [], u'time': []}, u'edge': {u'target': [], u'time': []}}}","[4, -4, 48]","[2595, 299, 318]",45.0,"[None, None, None]","[u'', -2, -8, -48, -48, -4, -8, 24, 24, 4, -4, 48, -24]",376133,14.0,11456.0,-3.0273172606858936e+18,mouselab-mdp,3
"[6190, 7009, 8130]","[u'right', u'right', u'up']",test,[],"[u'0', u'5', u'6', u'7']","{u'right': -10, u'up': -28, u'left': 0}","{u'mouseover': {u'state': {u'target': [], u'time': []}, u'edge': {u'target': [], u'time': []}}, u'click': {u'state': {u'target': [u'5', u'1', u'9'], u'time': [3472, 3893, 4605]}, u'edge': {u'target': [], u'time': []}}, u'mouseout': {u'state': {u'target': [], u'time': []}, u'edge': {u'target': [], u'time': []}}}","[-2, -4, 48]","[6186, 293, 596]",39.0,"[None, None, None]","[u'', -4, 4, 24, 24, -2, -4, 48, -24, -4, 8, -48, 48]",386782,15.0,9554.0,-4.87466613580449e+18,mouselab-mdp,3
"[4733, 5449, 6319]","[u'left', u'left', u'up']",test,[],"[u'0', u'9', u'10', u'11']","{u'right': -32, u'up': -68, u'left': 0}","{u'mouseover': {u'state': {u'target': [], u'time': []}, u'edge': {u'target': [], u'time': []}}, u'click': {u'state': {u'target': [u'9', u'1', u'5'], u'time': [2887, 3393, 3916]}, u'edge': {u'target': [], u'time': []}}, u'mouseout': {u'state': {u'target': [], u'time': []}, u'edge': {u'target': [], u'time': []}}}","[4, -8, 48]","[4729, 188, 348]",41.0,"[None, None, None]","[u'', -4, 4, -24, -24, -4, -8, 24, -24, 4, -8, 48, -48]",397221,16.0,9344.0,4.609247180316577e+17,mouselab-mdp,3
"[5347, 6082, 6906]","[u'left', u'left', u'up']",test,[],"[u'0', u'9', u'10', u'11']","{u'right': 0, u'up': -72, u'left': -8}","{u'mouseover': {u'state': {u'target': [], u'time': []}, u'edge': {u'target': [], u'time': []}}, u'click': {u'state': {u'target': [u'5', u'1', u'9'], u'time': [3149, 3833, 4410]}, u'edge': {u'target': [], u'time': []}}, u'mouseout': {u'state': {u'target': [], u'time': []}, u'edge': {u'target': [], u'time': []}}}","[4, -8, -24]","[5341, 211, 299]",-31.0,"[None, None, None]","[u'', -4, 8, -24, -48, -4, 8, -48, 48, 4, -8, -24, 48]",407757,17.0,9463.0,-1.4148451789680307e+18,mouselab-mdp,3
"[4201, 4932, 5656]","[u'up', u'up', u'right']",test,[],"[u'0', u'1', u'2', u'3']","{u'right': -18, u'up': 0, u'left': -44}","{u'mouseover': {u'state': {u'target': [], u'time': []}, u'edge': {u'target': [], u'time': []}}, u'click': {u'state': {u'target': [u'9', u'1', u'5'], u'time': [2031, 2449, 3405]}, u'edge': {u'target': [], u'time': []}}, u'mouseout': {u'state': {u'target': [], u'time': []}, u'edge': {u'target': [], u'time': []}}}","[4, 4, 48]","[4197, 212, 201]",53.0,"[None, None, None]","[u'', 4, 4, 48, -48, -2, -8, 48, -24, -4, -8, 24, -48]",418935,18.0,10087.0,-4.670080337334774e+18,mouselab-mdp,3
"[7201, 10462, 12145]","[u'left', u'left', u'up']",test,[],"[u'0', u'9', u'10', u'11']","{u'right': -90, u'up': -18, u'left': 0}","{u'mouseover': {u'state': {u'target': [], u'time': []}, u'edge': {u'target': [], u'time': []}}, u'click': {u'state': {u'target': [u'5', u'6', u'2', u'9'], u'time': [2050, 2669, 4501, 6178]}, u'edge': {u'target': [], u'time': []}}, u'mouseout': {u'state': {u'target': [], u'time': []}, u'edge': {u'target': [], u'time': []}}}","[4, 8, 24]","[7197, 2733, 1168]",32.0,"[None, None, None]","[u'', 2, -8, -24, 48, -2, -4, -24, -24, 4, 8, 24, 48]",435255,19.0,15227.0,6.51676073778936e+18,mouselab-mdp,3
"[11255, 11919, 12645]","[u'right', u'right', u'down']",test,[],"[u'0', u'5', u'6', u'8']","{u'right': 0, u'up': -48, u'left': -66}","{u'mouseover': {u'state': {u'target': [], u'time': []}, u'edge': {u'target': [], u'time': []}}, u'click': {u'state': {u'target': [u'9', u'1', u'3', u'4', u'11', u'12', u'8', u'7'], u'time': [1621, 4315, 6219, 6873, 7905, 8451, 9180, 9826]}, u'edge': {u'target': [], u'time': []}}, u'mouseout': {u'state': {u'target': [], u'time': []}, u'edge': {u'target': [], u'time': []}}}","[-4, -8, 48]","[11249, 151, 209]",28.0,"[None, None, None]","[u'', 4, 8, -24, -24, -4, -8, -48, 48, 2, -8, -24, -48]",450751,20.0,14430.0,2.63044322053822e+18,mouselab-mdp,3
"[4474, 5129, 5841]","[u'left', u'left', u'up']",test,[],"[u'0', u'9', u'10', u'11']","{u'right': -38, u'up': -4, u'left': 0}","{u'mouseover': {u'state': {u'target': [], u'time': []}, u'edge': {u'target': [], u'time': []}}, u'click': {u'state': {u'target': [u'12', u'11'], u'time': [1347, 2931]}, u'edge': {u'target': [], u'time': []}}, u'mouseout': {u'state': {u'target': [], u'time': []}, u'edge': {u'target': [], u'time': []}}}","[4, 4, 48]","[4469, 141, 185]",54.0,"[None, None, None]","[u'', -4, 8, 48, -24, -2, -4, 24, -48, 4, 4, 48, -48]",460315,21.0,8500.0,7.26324481058999e+18,mouselab-mdp,3
"[2087, 2715, 3493]","[u'left', u'left', u'up']",test,[],"[u'0', u'9', u'10', u'11']","{u'right': -16, u'up': -116, u'left': 0}","{u'mouseover': {u'state': {u'target': [], u'time': []}, u'edge': {u'target': [], u'time': []}}, u'click': {u'state': {u'target': [u'11'], u'time': [756]}, u'edge': {u'target': [], u'time': []}}, u'mouseout': {u'state': {u'target': [], u'time': []}, u'edge': {u'target': [], u'time': []}}}","[4, 4, 48]","[2082, 110, 257]",55.0,"[None, None, None]","[u'', -4, -8, -48, -48, -4, -4, 48, 24, 4, 4, 48, -48]",470884,22.0,9483.0,-9.063084800167141e+18,mouselab-mdp,3
"[1437, 2052, 2794]","[u'left', u'left', u'up']",test,[],"[u'0', u'9', u'10', u'11']","{u'right': -72, u'up': 0, u'left': -14}","{u'mouseover': {u'state': {u'target': [], u'time': []}, u'edge': {u'target': [], u'time': []}}, u'click': {u'state': {u'target': [u'11'], u'time': [453]}, u'edge': {u'target': [], u'time': []}}, u'mouseout': {u'state': {u'target': [], u'time': []}, u'edge': {u'target': [], u'time': []}}}","[2, -8, 48]","[1431, 101, 226]",41.0,"[None, None, None]","[u'', 4, 4, -48, 48, 4, 4, -24, -24, 2, -8, 48, -24]",481054,23.0,9004.0,3.802673927624508e+18,mouselab-mdp,3
"[5559, 6288, 7395]","[u'left', u'left', u'up']",test,[],"[u'0', u'9', u'10', u'11']","{u'right': -60, u'up': -84, u'left': 0}","{u'mouseover': {u'state': {u'target': [], u'time': []}, u'edge': {u'target': [], u'time': []}}, u'click': {u'state': {u'target': [u'11', u'7', u'4', u'3', u'8', u'12'], u'time': [786, 1883, 2614, 3190, 3882, 4601]}, u'edge': {u'target': [], u'time': []}}, u'mouseout': {u'state': {u'target': [], u'time': []}, u'edge': {u'target': [], u'time': []}}}","[2, 4, 24]","[5553, 210, 593]",24.0,"[None, None, None]","[u'', -2, -4, -48, -48, 2, -8, -24, -24, 2, 4, 24, 24]",491182,24.0,9029.0,-7.656966127788694e+18,mouselab-mdp,3
"[4646, 5342, 6085]","[u'left', u'left', u'down']",test,[],"[u'0', u'9', u'10', u'12']","{u'right': -108, u'up': -26, u'left': 0}","{u'mouseover': {u'state': {u'target': [], u'time': []}, u'edge': {u'target': [], u'time': []}}, u'click': {u'state': {u'target': [u'7', u'8', u'12'], u'time': [973, 1953, 3030]}, u'edge': {u'target': [], u'time': []}}, u'mouseout': {u'state': {u'target': [], u'time': []}, u'edge': {u'target': [], u'time': []}}}","[-4, 4, 48]","[4640, 174, 224]",45.0,"[None, None, None]","[u'', 2, -4, 24, -48, -4, -8, -48, -48, -4, 4, -48, 48]",501116,25.0,8853.0,2.1183359843005005e+18,mouselab-mdp,3
"[3704, 4519, 5294]","[u'up', u'up', u'right']",test,[],"[u'0', u'1', u'2', u'3']","{u'right': 0, u'up': -4, u'left': -80}","{u'mouseover': {u'state': {u'target': [], u'time': []}, u'edge': {u'target': [], u'time': []}}, u'click': {u'state': {u'target': [u'11', u'4', u'3'], u'time': [1290, 1943, 2688]}, u'edge': {u'target': [], u'time': []}}, u'mouseout': {u'state': {u'target': [], u'time': []}, u'edge': {u'target': [], u'time': []}}}","[-2, -4, 48]","[3700, 290, 260]",39.0,"[None, None, None]","[u'', -2, -4, 48, -24, 2, -4, 48, 24, -2, -8, -24, -24]",511881,26.0,9692.0,2.593864447454748e+18,mouselab-mdp,3
"[3736, 4414, 5180]","[u'left', u'left', u'down']",test,[],"[u'0', u'9', u'10', u'12']","{u'right': -20, u'up': -26, u'left': 0}","{u'mouseover': {u'state': {u'target': [], u'time': []}, u'edge': {u'target': [], u'time': []}}, u'click': {u'state': {u'target': [u'12'], u'time': [2426]}, u'edge': {u'target': [], u'time': []}}, u'mouseout': {u'state': {u'target': [], u'time': []}, u'edge': {u'target': [], u'time': []}}}","[4, 4, 48]","[3733, 145, 254]",55.0,"[None, None, None]","[u'', 2, 4, 24, -24, 4, 8, 24, -24, 4, 4, 24, 48]",521472,27.0,8521.0,5.959115827255457e+18,mouselab-mdp,3
"[2369, 3053, 3846]","[u'left', u'left', u'down']",test,[],"[u'0', u'9', u'10', u'12']","{u'right': 0, u'up': -32, u'left': -6}","{u'mouseover': {u'state': {u'target': [], u'time': []}, u'edge': {u'target': [], u'time': []}}, u'click': {u'state': {u'target': [u'12'], u'time': [1381]}, u'edge': {u'target': [], u'time': []}}, u'mouseout': {u'state': {u'target': [], u'time': []}, u'edge': {u'target': [], u'time': []}}}","[4, -4, 48]","[2365, 158, 275]",47.0,"[None, None, None]","[u'', 2, -4, 24, -24, -2, 8, 24, 48, 4, -4, 48, 48]",531223,28.0,8656.0,5.246743485396079e+18,mouselab-mdp,3
"[6433, 7075, 7755]","[u'right', u'right', u'up']",test,[],"[u'0', u'5', u'6', u'7']","{u'right': 0, u'up': -94, u'left': -78}","{u'mouseover': {u'state': {u'target': [], u'time': []}, u'edge': {u'target': [], u'time': []}}, u'click': {u'state': {u'target': [u'11', u'12', u'4', u'3', u'7'], u'time': [1015, 2937, 4058, 4880, 5345]}, u'edge': {u'target': [], u'time': []}}, u'mouseout': {u'state': {u'target': [], u'time': []}, u'edge': {u'target': [], u'time': []}}}","[4, 8, 48]","[6429, 109, 163]",55.0,"[None, None, None]","[u'', -2, -8, -24, -24, 4, 8, 48, 24, -2, 8, -24, -48]",541282,29.0,8987.0,4.0797524101430456e+18,mouselab-mdp,3
"[37977, 48020, 50692]","[u'left', u'left', u'up']",training,"[3, 2, 0, 0, 0, 3, 0, 3, 6]","[u'0', u'9', u'10', u'11']","{u'right': -16, u'up': -8, u'left': 0}","{u'mouseover': {u'state': {u'target': [], u'time': []}, u'edge': {u'target': [], u'time': []}}, u'click': {u'state': {u'target': [u'5', u'8', u'11', u'12', u'4', u'10', u'3', u'1'], u'time': [12344, 18977, 21934, 23995, 25804, 30080, 30976, 35421]}, u'edge': {u'target': [], u'time': []}}, u'mouseout': {u'state': {u'target': [], u'time': []}, u'edge': {u'target': [], u'time': []}}}","[2, 4, 24]","[37971, 3534, 2165]",22.0,"[None, None, None]","[u'', 2, -4, 24, -48, -2, -8, 24, -48, 2, 4, 24, -48]",314871,0.0,55699.0,2.6530187619064013e+18,mouselab-mdp,4
"[11882, 57907, 59555]","[u'left', u'left', u'down']",training,"[0, 40]","[u'0', u'9', u'10', u'12']","{u'right': -2, u'up': 0, u'left': -14}","{u'mouseover': {u'state': {u'target': [], u'time': []}, u'edge': {u'target': [], u'time': []}}, u'click': {u'state': {u'target': [u'11'], u'time': [6562]}, u'edge': {u'target': [], u'time': []}}, u'mouseout': {u'state': {u'target': [], u'time': []}, u'edge': {u'target': [], u'time': []}}}","[-4, -8, 24]","[11877, 5506, 1140]",11.0,"[None, None, None]","[u'', -2, 4, 24, -24, -4, 4, -24, 24, -4, -8, -24, 24]",378203,1.0,62265.0,-3.142242075455045e+18,mouselab-mdp,4
"[11915, 13634, 14734]","[u'left', u'left', u'up']",training,"[0, 0, 0, 3, 0]","[u'0', u'9', u'10', u'11']","{u'right': -16, u'up': -116, u'left': 0}","{u'mouseover': {u'state': {u'target': [], u'time': []}, u'edge': {u'target': [], u'time': []}}, u'click': {u'state': {u'target': [u'3', u'4', u'11', u'12'], u'time': [2261, 3640, 4967, 8900]}, u'edge': {u'target': [], u'time': []}}, u'mouseout': {u'state': {u'target': [], u'time': []}, u'edge': {u'target': [], u'time': []}}}","[4, 4, 48]","[11912, 1214, 594]",52.0,"[None, None, None]","[u'', -4, -8, -48, -48, -4, -4, 48, 24, 4, 4, 48, -48]",395943,2.0,16691.0,-9.063084800167141e+18,mouselab-mdp,4
"[16533, 20687, 22128]","[u'right', u'right', u'up']",training,"[0, 0, 0, 0, 3, 0, 0, 2]","[u'0', u'5', u'6', u'7']","{u'right': 0, u'up': -6, u'left': -64}","{u'mouseover': {u'state': {u'target': [], u'time': []}, u'edge': {u'target': [], u'time': []}}, u'click': {u'state': {u'target': [u'8', u'12', u'4', u'3', u'2', u'11', u'7'], u'time': [1896, 3678, 5250, 6098, 10415, 11455, 13353]}, u'edge': {u'target': [], u'time': []}}, u'mouseout': {u'state': {u'target': [], u'time': []}, u'edge': {u'target': [], u'time': []}}}","[2, -4, 24]","[16529, 1651, 932]",15.0,"[None, None, None]","[u'', -4, -4, -24, 24, 2, -4, 24, -48, -2, 8, -48, -48]",421050,3.0,24055.0,-1.3896256955715197e+18,mouselab-mdp,4
"[13334, 19044, 20109]","[u'left', u'left', u'down']",training,"[0, 0, 0, 2, 4]","[u'0', u'9', u'10', u'12']","{u'right': 0, u'up': -26, u'left': -14}","{u'mouseover': {u'state': {u'target': [], u'time': []}, u'edge': {u'target': [], u'time': []}}, u'click': {u'state': {u'target': [u'4', u'8', u'12', u'7'], u'time': [2934, 4700, 6131, 10176]}, u'edge': {u'target': [], u'time': []}}, u'mouseout': {u'state': {u'target': [], u'time': []}, u'edge': {u'target': [], u'time': []}}}","[-4, -8, 48]","[13330, 1199, 558]",32.0,"[None, None, None]","[u'', -4, 4, 24, -24, -2, 4, 48, -24, -4, -8, -48, 48]",443718,4.0,21625.0,8.588655795336371e+17,mouselab-mdp,4
"[7285, 8641, 9877]","[u'up', u'up', u'left']",training,"[0, 0]","[u'0', u'1', u'2', u'4']","{u'right': -2, u'up': 0, u'left': -32}","{u'mouseover': {u'state': {u'target': [], u'time': []}, u'edge': {u'target': [], u'time': []}}, u'click': {u'state': {u'target': [u'4'], u'time': [4039]}, u'edge': {u'target': [], u'time': []}}, u'mouseout': {u'state': {u'target': [], u'time': []}, u'edge': {u'target': [], u'time': []}}}","[2, 4, 48]","[7282, 856, 732]",53.0,"[None, None, None]","[u'', 2, 4, -24, 48, -4, 8, -48, 48, 2, -4, 24, -24]",456166,5.0,11387.0,-8.327671364504025e+18,mouselab-mdp,4
"[3052, 4026, 4991]","[u'right', u'right', u'down']",training,"[0, 0]","[u'0', u'5', u'6', u'8']","{u'right': 0, u'up': -12, u'left': -6}","{u'mouseover': {u'state': {u'target': [], u'time': []}, u'edge': {u'target': [], u'time': []}}, u'click': {u'state': {u'target': [u'8'], u'time': [1163]}, u'edge': {u'target': [], u'time': []}}, u'mouseout': {u'state': {u'target': [], u'time': []}, u'edge': {u'target': [], u'time': []}}}","[2, 4, 48]","[3048, 471, 450]",53.0,"[None, None, None]","[u'', -2, -4, 48, 24, 2, 4, -48, 48, -4, 4, 48, 24]",466281,6.0,9072.0,7.946552191512982e+18,mouselab-mdp,4
"[7791, 8791, 9830]","[u'left', u'left', u'up']",training,"[0, 0, 0, 0, 0, 0]","[u'0', u'9', u'10', u'11']","{u'right': -32, u'up': -68, u'left': 0}","{u'mouseover': {u'state': {u'target': [], u'time': []}, u'edge': {u'target': [], u'time': []}}, u'click': {u'state': {u'target': [u'12', u'8', u'4', u'3', u'11'], u'time': [997, 2478, 3745, 4797, 5634]}, u'edge': {u'target': [], u'time': []}}, u'mouseout': {u'state': {u'target': [], u'time': []}, u'edge': {u'target': [], u'time': []}}}","[4, -8, 48]","[7786, 489, 529]",39.0,"[None, None, None]","[u'', -4, 4, -24, -24, -4, -8, 24, -24, 4, -8, 48, -48]",478999,7.0,11657.0,4.609247180316577e+17,mouselab-mdp,4
"[10156, 11050, 11920]","[u'left', u'left', u'down']",training,"[0, 0, 0, 2, 0]","[u'0', u'9', u'10', u'12']","{u'right': -74, u'up': -10, u'left': 0}","{u'mouseover': {u'state': {u'target': [], u'time': []}, u'edge': {u'target': [], u'time': []}}, u'click': {u'state': {u'target': [u'4', u'8', u'12', u'7'], u'time': [1329, 2561, 3560, 8766]}, u'edge': {u'target': [], u'time': []}}, u'mouseout': {u'state': {u'target': [], u'time': []}, u'edge': {u'target': [], u'time': []}}}","[4, -8, 48]","[10153, 393, 369]",40.0,"[None, None, None]","[u'', 2, 8, 24, -24, 2, -8, -24, -24, 4, -8, 48, 48]",493997,8.0,13957.0,-3.200495881349436e+18,mouselab-mdp,4
"[4480, 5343, 6222]","[u'right', u'right', u'down']",training,"[0, 0, 0]","[u'0', u'5', u'6', u'8']","{u'right': 0, u'up': -94, u'left': -56}","{u'mouseover': {u'state': {u'target': [], u'time': []}, u'edge': {u'target': [], u'time': []}}, u'click': {u'state': {u'target': [u'11', u'8'], u'time': [1609, 2878]}, u'edge': {u'target': [], u'time': []}}, u'mouseout': {u'state': {u'target': [], u'time': []}, u'edge': {u'target': [], u'time': []}}}","[-2, -8, 48]","[4477, 355, 380]",36.0,"[None, None, None]","[u'', -4, -4, -48, -48, -2, -8, 24, 48, 2, 4, -24, -48]",503165,9.0,8110.0,-1.84824368346445e+18,mouselab-mdp,4
"[9218, 10153, 11137]","[u'left', u'left', u'down']",test,"[0, 0, 0, 0, 0, 0]","[u'0', u'9', u'10', u'12']","{u'right': -90, u'up': -18, u'left': 0}","{u'mouseover': {u'state': {u'target': [], u'time': []}, u'edge': {u'target': [], u'time': []}}, u'click': {u'state': {u'target': [u'11', u'3', u'8', u'7', u'12'], u'time': [2023, 3602, 4566, 6330, 7212]}, u'edge': {u'target': [], u'time': []}}, u'mouseout': {u'state': {u'target': [], u'time': []}, u'edge': {u'target': [], u'time': []}}}","[4, 8, 48]","[9215, 424, 476]",55.0,"[None, None, None]","[u'', 2, -8, -24, 48, -2, -4, -24, -24, 4, 8, 24, 48]",657007,10.0,12758.0,6.51676073778936e+18,mouselab-mdp,4
"[6856, 7897, 8871]","[u'left', u'left', u'up']",test,"[0, 0, 0, 0, 0, 0]","[u'0', u'9', u'10', u'11']","{u'right': -36, u'up': -106, u'left': 0}","{u'mouseover': {u'state': {u'target': [], u'time': []}, u'edge': {u'target': [], u'time': []}}, u'click': {u'state': {u'target': [u'12', u'4', u'8', u'7', u'11'], u'time': [1134, 2186, 3094, 4000, 5586]}, u'edge': {u'target': [], u'time': []}}, u'mouseout': {u'state': {u'target': [], u'time': []}, u'edge': {u'target': [], u'time': []}}}","[4, -4, 48]","[6848, 543, 464]",43.0,"[None, None, None]","[u'', -2, -8, -48, -48, -4, -8, 24, 24, 4, -4, 48, -24]",668946,11.0,10883.0,-3.0273172606858936e+18,mouselab-mdp,4
"[7158, 8025, 9101]","[u'left', u'left', u'down']",test,"[0, 0, 0, 0, 0, 0, 0]","[u'0', u'9', u'10', u'12']","{u'right': -60, u'up': -84, u'left': 0}","{u'mouseover': {u'state': {u'target': [], u'time': []}, u'edge': {u'target': [], u'time': []}}, u'click': {u'state': {u'target': [u'3', u'8', u'11', u'12', u'7', u'4'], u'time': [1017, 2048, 2965, 4099, 5067, 5937]}, u'edge': {u'target': [], u'time': []}}, u'mouseout': {u'state': {u'target': [], u'time': []}, u'edge': {u'target': [], u'time': []}}}","[2, 4, 24]","[7154, 365, 575]",24.0,"[None, None, None]","[u'', -2, -4, -48, -48, 2, -8, -24, -24, 2, 4, 24, 24]",680405,12.0,10420.0,-7.656966127788694e+18,mouselab-mdp,4
"[2653, 3456, 4271]","[u'left', u'left', u'down']",test,"[0, 0, 0]","[u'0', u'9', u'10', u'12']","{u'right': 0, u'up': -72, u'left': -8}","{u'mouseover': {u'state': {u'target': [], u'time': []}, u'edge': {u'target': [], u'time': []}}, u'click': {u'state': {u'target': [u'4', u'12'], u'time': [628, 1475]}, u'edge': {u'target': [], u'time': []}}, u'mouseout': {u'state': {u'target': [], u'time': []}, u'edge': {u'target': [], u'time': []}}}","[4, -8, 48]","[2650, 302, 304]",42.0,"[None, None, None]","[u'', -4, 8, -24, -48, -4, 8, -48, 48, 4, -8, -24, 48]",690385,13.0,8935.0,-1.4148451789680307e+18,mouselab-mdp,4
"[4127, 4770, 5554]","[u'right', u'right', u'up']",test,"[0, 0, 0, 0]","[u'0', u'5', u'6', u'7']","{u'right': 0, u'up': -4, u'left': -80}","{u'mouseover': {u'state': {u'target': [], u'time': []}, u'edge': {u'target': [], u'time': []}}, u'click': {u'state': {u'target': [u'11', u'8', u'7'], u'time': [1088, 1950, 2704]}, u'edge': {u'target': [], u'time': []}}, u'mouseout': {u'state': {u'target': [], u'time': []}, u'edge': {u'target': [], u'time': []}}}","[2, -4, 48]","[4124, 136, 280]",43.0,"[None, None, None]","[u'', -2, -4, 48, -24, 2, -4, 48, 24, -2, -8, -24, -24]",701691,14.0,10268.0,2.593864447454748e+18,mouselab-mdp,4
"[3458, 6724, 8386]","[u'up', u'up', u'left']",test,"[0, 0, 0]","[u'0', u'1', u'2', u'4']","{u'right': -98, u'up': 0, u'left': -38}","{u'mouseover': {u'state': {u'target': [], u'time': []}, u'edge': {u'target': [], u'time': []}}, u'click': {u'state': {u'target': [u'7', u'4'], u'time': [1041, 1907]}, u'edge': {u'target': [], u'time': []}}, u'mouseout': {u'state': {u'target': [], u'time': []}, u'edge': {u'target': [], u'time': []}}}","[4, 8, 48]","[3453, 2756, 1152]",58.0,"[None, None, None]","[u'', 4, 8, -24, 48, 2, 8, -48, -48, 2, -4, 24, -48]",712722,15.0,9992.0,-6.668518537832265e+18,mouselab-mdp,4
"[3568, 4592, 5642]","[u'right', u'right', u'down']",test,"[0, 0, 0]","[u'0', u'5', u'6', u'8']","{u'right': 0, u'up': -34, u'left': -28}","{u'mouseover': {u'state': {u'target': [], u'time': []}, u'edge': {u'target': [], u'time': []}}, u'click': {u'state': {u'target': [u'12', u'8'], u'time': [988, 2055]}, u'edge': {u'target': [], u'time': []}}, u'mouseout': {u'state': {u'target': [], u'time': []}, u'edge': {u'target': [], u'time': []}}}","[2, 4, 48]","[3564, 516, 539]",52.0,"[None, None, None]","[u'', 4, -8, 24, 24, 2, 4, 24, 48, -2, 4, 24, -48]",724576,16.0,10809.0,6.722698278557235e+18,mouselab-mdp,4
"[6159, 7024, 7922]","[u'left', u'left', u'down']",test,"[0, 0, 0, 0, 0, 0]","[u'0', u'9', u'10', u'12']","{u'right': -14, u'up': -24, u'left': 0}","{u'mouseover': {u'state': {u'target': [], u'time': []}, u'edge': {u'target': [], u'time': []}}, u'click': {u'state': {u'target': [u'11', u'3', u'7', u'8', u'12'], u'time': [1390, 2509, 3360, 4131, 4789]}, u'edge': {u'target': [], u'time': []}}, u'mouseout': {u'state': {u'target': [], u'time': []}, u'edge': {u'target': [], u'time': []}}}","[-4, 4, 48]","[6156, 361, 379]",43.0,"[None, None, None]","[u'', -4, 4, 24, 24, 2, 8, -24, 24, -4, 4, -24, 48]",735069,17.0,9448.0,5.347440239323845e+18,mouselab-mdp,4
"[5457, 6336, 7438]","[u'right', u'right', u'up']",test,"[0, 0, 0, 0, 0, 0]","[u'0', u'5', u'6', u'7']","{u'right': 0, u'up': -94, u'left': -78}","{u'mouseover': {u'state': {u'target': [], u'time': []}, u'edge': {u'target': [], u'time': []}}, u'click': {u'state': {u'target': [u'11', u'3', u'8', u'12', u'7'], u'time': [1129, 1971, 2627, 3305, 4020]}, u'edge': {u'target': [], u'time': []}}, u'mouseout': {u'state': {u'target': [], u'time': []}, u'edge': {u'target': [], u'time': []}}}","[4, 8, 48]","[5454, 374, 595]",55.0,"[None, None, None]","[u'', -2, -8, -24, -24, 4, 8, 48, 24, -2, 8, -24, -48]",745311,18.0,9203.0,4.0797524101430456e+18,mouselab-mdp,4
"[6724, 7822, 8711]","[u'up', u'up', u'left']",test,"[0, 0, 0, 0, 0, 0, 0]","[u'0', u'1', u'2', u'4']","{u'right': -66, u'up': 0, u'left': -62}","{u'mouseover': {u'state': {u'target': [], u'time': []}, u'edge': {u'target': [], u'time': []}}, u'click': {u'state': {u'target': [u'7', u'8', u'12', u'11', u'4', u'3'], u'time': [539, 1298, 2208, 2827, 3433, 3951]}, u'edge': {u'target': [], u'time': []}}, u'mouseout': {u'state': {u'target': [], u'time': []}, u'edge': {u'target': [], u'time': []}}}","[2, 4, 24]","[6720, 597, 380]",24.0,"[None, None, None]","[u'', 2, 4, -24, 24, 4, 8, -48, -48, -4, -4, -48, -24]",757402,19.0,11036.0,-7.784032825751816e+18,mouselab-mdp,4
"[4016, 4911, 5745]","[u'up', u'up', u'left']",test,"[0, 0, 0, 0]","[u'0', u'1', u'2', u'4']","{u'right': -56, u'up': 0, u'left': -20}","{u'mouseover': {u'state': {u'target': [], u'time': []}, u'edge': {u'target': [], u'time': []}}, u'click': {u'state': {u'target': [u'8', u'12', u'4'], u'time': [909, 1810, 2692]}, u'edge': {u'target': [], u'time': []}}, u'mouseout': {u'state': {u'target': [], u'time': []}, u'edge': {u'target': [], u'time': []}}}","[-2, -8, 48]","[4014, 373, 327]",35.0,"[None, None, None]","[u'', -2, -8, 24, 48, -2, 8, -24, -24, -2, -4, 24, -24]",768326,20.0,9887.0,-3.603402282008602e+18,mouselab-mdp,4
"[2189, 3013, 3942]","[u'up', u'up', u'right']",test,"[0, 0]","[u'0', u'1', u'2', u'3']","{u'right': -32, u'up': 0, u'left': -88}","{u'mouseover': {u'state': {u'target': [], u'time': []}, u'edge': {u'target': [], u'time': []}}, u'click': {u'state': {u'target': [u'3'], u'time': [1100]}, u'edge': {u'target': [], u'time': []}}, u'mouseout': {u'state': {u'target': [], u'time': []}, u'edge': {u'target': [], u'time': []}}}","[2, 8, 48]","[2183, 320, 411]",57.0,"[None, None, None]","[u'', 2, 8, 48, 24, -2, 4, 24, 24, -2, -4, -48, -24]",778554,21.0,9175.0,-8.923867603615937e+18,mouselab-mdp,4
"[5298, 6086, 6921]","[u'up', u'up', u'right']",test,"[0, 0, 0, 0, 0]","[u'0', u'1', u'2', u'3']","{u'right': -24, u'up': 0, u'left': -36}","{u'mouseover': {u'state': {u'target': [], u'time': []}, u'edge': {u'target': [], u'time': []}}, u'click': {u'state': {u'target': [u'12', u'7', u'4', u'3'], u'time': [828, 2095, 3504, 4076]}, u'edge': {u'target': [], u'time': []}}, u'mouseout': {u'state': {u'target': [], u'time': []}, u'edge': {u'target': [], u'time': []}}}","[-4, 4, 48]","[5294, 287, 335]",44.0,"[None, None, None]","[u'', -4, 4, 48, -48, -4, 4, -24, 24, -4, -8, 24, 24]",789233,22.0,9642.0,-5.995301136843023e+18,mouselab-mdp,4
"[2372, 3237, 4529]","[u'left', u'left', u'up']",test,"[0, 0]","[u'0', u'9', u'10', u'11']","{u'right': -42, u'up': -72, u'left': 0}","{u'mouseover': {u'state': {u'target': [], u'time': []}, u'edge': {u'target': [], u'time': []}}, u'click': {u'state': {u'target': [u'11'], u'time': [1217]}, u'edge': {u'target': [], u'time': []}}, u'mouseout': {u'state': {u'target': [], u'time': []}, u'edge': {u'target': [], u'time': []}}}","[-2, 8, 48]","[2368, 358, 783]",53.0,"[None, None, None]","[u'', 2, 4, -48, -24, -4, -8, 24, -48, -2, 8, 48, -24]",799862,23.0,9590.0,-8.806789642961306e+18,mouselab-mdp,4
"[2516, 3318, 4163]","[u'right', u'right', u'up']",test,"[0, 0]","[u'0', u'5', u'6', u'7']","{u'right': -8, u'up': -22, u'left': 0}","{u'mouseover': {u'state': {u'target': [], u'time': []}, u'edge': {u'target': [], u'time': []}}, u'click': {u'state': {u'target': [u'7'], u'time': [1453]}, u'edge': {u'target': [], u'time': []}}, u'mouseout': {u'state': {u'target': [], u'time': []}, u'edge': {u'target': [], u'time': []}}}","[4, -8, 48]","[2512, 291, 336]",43.0,"[None, None, None]","[u'', 2, 4, 24, -24, 4, -8, 48, -24, -4, 8, -48, 48]",809386,24.0,8476.0,5.010381167344479e+18,mouselab-mdp,4
"[3193, 3967, 4836]","[u'left', u'left', u'down']",test,"[0, 0, 0]","[u'0', u'9', u'10', u'12']","{u'right': 0, u'up': -14, u'left': -8}","{u'mouseover': {u'state': {u'target': [], u'time': []}, u'edge': {u'target': [], u'time': []}}, u'click': {u'state': {u'target': [u'4', u'12'], u'time': [829, 2070]}, u'edge': {u'target': [], u'time': []}}, u'mouseout': {u'state': {u'target': [], u'time': []}, u'edge': {u'target': [], u'time': []}}}","[2, -8, 48]","[3190, 272, 367]",40.0,"[None, None, None]","[u'', 4, 8, -24, 24, -2, 4, -24, 48, 2, -8, 24, 48]",820499,25.0,10070.0,8.866052500453722e+18,mouselab-mdp,4
"[6741, 7445, 8248]","[u'up', u'up', u'right']",test,"[0, 0, 0, 0, 0, 0, 0]","[u'0', u'1', u'2', u'3']","{u'right': -44, u'up': -6, u'left': 0}","{u'mouseover': {u'state': {u'target': [], u'time': []}, u'edge': {u'target': [], u'time': []}}, u'click': {u'state': {u'target': [u'7', u'4', u'12', u'8', u'11', u'3'], u'time': [831, 1909, 2749, 3881, 4595, 5493]}, u'edge': {u'target': [], u'time': []}}, u'mouseout': {u'state': {u'target': [], u'time': []}, u'edge': {u'target': [], u'time': []}}}","[-2, -4, 24]","[6738, 204, 302]",12.0,"[None, None, None]","[u'', -2, -4, 24, -48, -4, 8, -24, -24, 4, -4, -48, 24]",831091,26.0,9553.0,1.3993036559342144e+18,mouselab-mdp,4
"[2288, 2951, 3670]","[u'right', u'right', u'down']",test,"[0, 0, 0]","[u'0', u'5', u'6', u'8']","{u'right': 0, u'up': -32, u'left': -6}","{u'mouseover': {u'state': {u'target': [], u'time': []}, u'edge': {u'target': [], u'time': []}}, u'click': {u'state': {u'target': [u'7', u'8'], u'time': [458, 1211]}, u'edge': {u'target': [], u'time': []}}, u'mouseout': {u'state': {u'target': [], u'time': []}, u'edge': {u'target': [], u'time': []}}}","[-2, 8, 48]","[2284, 160, 212]",52.0,"[None, None, None]","[u'', 2, -4, 24, -24, -2, 8, 24, 48, 4, -4, 48, 48]",842277,27.0,10117.0,5.246743485396079e+18,mouselab-mdp,4
"[2029, 2637, 3451]","[u'left', u'left', u'down']",test,"[0, 0]","[u'0', u'9', u'10', u'12']","{u'right': -92, u'up': -66, u'left': 0}","{u'mouseover': {u'state': {u'target': [], u'time': []}, u'edge': {u'target': [], u'time': []}}, u'click': {u'state': {u'target': [u'12'], u'time': [965]}, u'edge': {u'target': [], u'time': []}}, u'mouseout': {u'state': {u'target': [], u'time': []}, u'edge': {u'target': [], u'time': []}}}","[-4, -4, 48]","[2025, 98, 292]",39.0,"[None, None, None]","[u'', 2, -4, -24, -24, 4, -8, -48, -48, -4, -4, 48, 48]",852547,28.0,9228.0,-7.913607226466677e+18,mouselab-mdp,4
"[5551, 6154, 6868]","[u'up', u'up', u'right']",test,"[0, 0, 0, 0, 0]","[u'0', u'1', u'2', u'3']","{u'right': -36, u'up': -2, u'left': 0}","{u'mouseover': {u'state': {u'target': [], u'time': []}, u'edge': {u'target': [], u'time': []}}, u'click': {u'state': {u'target': [u'7', u'8', u'4', u'3'], u'time': [1305, 2443, 3877, 4379]}, u'edge': {u'target': [], u'time': []}}, u'mouseout': {u'state': {u'target': [], u'time': []}, u'edge': {u'target': [], u'time': []}}}","[4, -4, 48]","[5546, 90, 205]",44.0,"[None, None, None]","[u'', 4, -4, 48, -48, -2, -8, 24, 24, -2, 4, 48, -48]",864123,29.0,10528.0,8.045829731203394e+18,mouselab-mdp,4
"[22459, 23306, 24011]","[u'up', u'up', u'left']",training,"[0, 0, 0, 0, 0, 0, 0, 0, 0, 0, 0, 0, 0]","[u'0', u'1', u'2', u'4']","{u'right': -56, u'up': 0, u'left': -20}","{u'mouseover': {u'state': {u'target': [], u'time': []}, u'edge': {u'target': [], u'time': []}}, u'click': {u'state': {u'target': [u'5', u'9', u'10', u'11', u'12', u'1', u'2', u'4', u'3', u'7', u'6', u'8'], u'time': [2162, 5036, 5871, 7388, 8453, 9216, 9764, 10442, 11047, 11606, 12199, 12763]}, u'edge': {u'target': [], u'time': []}}, u'mouseout': {u'state': {u'target': [], u'time': []}, u'edge': {u'target': [], u'time': []}}}","[-2, -8, 48]","[22453, 351, 206]",26.0,"[None, None, None]","[u'', -2, -8, 24, 48, -2, 8, -24, -24, -2, -4, 24, -24]",97880,0.0,26362.0,-3.603402282008602e+18,mouselab-mdp,5
"[7650, 8305, 8963]","[u'left', u'left', u'up']",training,"[0, 0, 0, 0, 0, 0]","[u'0', u'9', u'10', u'11']","{u'right': -42, u'up': -72, u'left': 0}","{u'mouseover': {u'state': {u'target': [], u'time': []}, u'edge': {u'target': [], u'time': []}}, u'click': {u'state': {u'target': [u'4', u'3', u'7', u'8', u'11'], u'time': [2052, 2803, 3482, 4302, 5708]}, u'edge': {u'target': [], u'time': []}}, u'mouseout': {u'state': {u'target': [], u'time': []}, u'edge': {u'target': [], u'time': []}}}","[-2, 8, 48]","[7646, 156, 161]",49.0,"[None, None, None]","[u'', 2, 4, -48, -24, -4, -8, 24, -48, -2, 8, 48, -24]",109673,1.0,10739.0,-8.806789642961306e+18,mouselab-mdp,5
"[2192, 2800, 3440]","[u'up', u'up', u'left']",training,"[0, 0]","[u'0', u'1', u'2', u'4']","{u'right': -72, u'up': 0, u'left': -14}","{u'mouseover': {u'state': {u'target': [], u'time': []}, u'edge': {u'target': [], u'time': []}}, u'click': {u'state': {u'target': [u'4'], u'time': [852]}, u'edge': {u'target': [], u'time': []}}, u'mouseout': {u'state': {u'target': [], u'time': []}, u'edge': {u'target': [], u'time': []}}}","[4, 4, 48]","[2190, 105, 145]",55.0,"[None, None, None]","[u'', 4, 4, -48, 48, 4, 4, -24, -24, 2, -8, 48, -24]",119897,2.0,9184.0,3.802673927624508e+18,mouselab-mdp,5
"[2522, 3114, 3738]","[u'right', u'right', u'down']",training,"[0, 0, 0]","[u'0', u'5', u'6', u'8']","{u'right': -6, u'up': -24, u'left': 0}","{u'mouseover': {u'state': {u'target': [], u'time': []}, u'edge': {u'target': [], u'time': []}}, u'click': {u'state': {u'target': [u'12', u'8'], u'time': [550, 1284]}, u'edge': {u'target': [], u'time': []}}, u'mouseout': {u'state': {u'target': [], u'time': []}, u'edge': {u'target': [], u'time': []}}}","[-2, -4, 48]","[2519, 90, 130]",40.0,"[None, None, None]","[u'', 4, -4, -48, 24, -2, -4, 24, 48, 4, -4, 48, -48]",131049,3.0,10106.0,3.2058837162677184e+17,mouselab-mdp,5
"[12132, 13348, 14644]","[u'up', u'up', u'right']",training,"[0, 0, 0, 0, 0, 0, 0]","[u'0', u'1', u'2', u'3']","{u'right': -46, u'up': 0, u'left': -44}","{u'mouseover': {u'state': {u'target': [], u'time': []}, u'edge': {u'target': [], u'time': []}}, u'click': {u'state': {u'target': [u'7', u'11', u'12', u'8', u'3', u'4'], u'time': [678, 1510, 2205, 3096, 3814, 4668]}, u'edge': {u'target': [], u'time': []}}, u'mouseout': {u'state': {u'target': [], u'time': []}, u'edge': {u'target': [], u'time': []}}}","[2, -4, 24]","[12128, 710, 806]",16.0,"[None, None, None]","[u'', 2, -4, 24, 24, -4, 4, -24, -24, -2, 4, -24, -48]",148153,4.0,16068.0,7.862543089384343e+18,mouselab-mdp,5
"[6416, 7169, 7792]","[u'left', u'left', u'up']",training,"[0, 0, 0, 0, 0, 0, 0]","[u'0', u'9', u'10', u'11']","{u'right': -38, u'up': -38, u'left': 0}","{u'mouseover': {u'state': {u'target': [], u'time': []}, u'edge': {u'target': [], u'time': []}}, u'click': {u'state': {u'target': [u'4', u'3', u'7', u'8', u'12', u'11'], u'time': [778, 1397, 2651, 3272, 4088, 4746]}, u'edge': {u'target': [], u'time': []}}, u'mouseout': {u'state': {u'target': [], u'time': []}, u'edge': {u'target': [], u'time': []}}}","[4, -4, 24]","[6413, 261, 133]",18.0,"[None, None, None]","[u'', 2, 8, -48, -24, 2, 8, -24, -48, 4, -4, 24, -48]",158264,5.0,9056.0,4.953541845127005e+17,mouselab-mdp,5
